"view_history","rt","trial_type","trial_index","time_elapsed","internal_node_id","stimulus","key_press","test_part","xClicked","yClicked","responseInd","nameID"
"[{""page_index"":0,""viewing_time"":2181}]","2181","instructions","0","2181","0.0-0.0","","","","","","",""
"","null","html-keyboard-response","1","3183","0.0-1.0-0.0","<div style=""font-size:60px;"">+</div>","null","fixation","","","",""
"","6936","name-keyboard-response","2","10132","0.0-1.0-1.0","1","","Probe","1039","633","6","133"
"","null","html-keyboard-response","3","11133","0.0-1.0-0.1","<div style=""font-size:60px;"">+</div>","null","fixation","","","",""
"","13322","name-keyboard-response","4","24471","0.0-1.0-1.1","2","","Probe","1053","531","5","169"
"[{""page_index"":0,""viewing_time"":1233}]","1233","instructions","5","25704","0.0-2.0","","","","","","",""
"","null","html-keyboard-response","6","26706","0.0-3.0-0.0","<div style=""font-size:60px;"">+</div>","null","fixation","","","",""
"","3430","name-keyboard-response","7","30143","0.0-3.0-1.0","1","","Probe","1100","465","4","146"
"","null","html-keyboard-response","8","31144","0.0-3.0-0.1","<div style=""font-size:60px;"">+</div>","null","fixation","","","",""
"","2601","name-keyboard-response","9","33754","0.0-3.0-1.1","2","","Probe","1107","232","1","12"
"","null","html-keyboard-response","10","34755","0.0-3.0-0.2","<div style=""font-size:60px;"">+</div>","null","fixation","","","",""
"","2048","name-keyboard-response","11","36810","0.0-3.0-1.2","3","","Probe","1062","295","2","97"
"","null","html-keyboard-response","12","37812","0.0-3.0-0.3","<div style=""font-size:60px;"">+</div>","null","fixation","","","",""
"","1886","name-keyboard-response","13","39700","0.0-3.0-1.3","4","","Probe","1055","303","2","92"
"","null","html-keyboard-response","14","40702","0.0-3.0-0.4","<div style=""font-size:60px;"">+</div>","null","fixation","","","",""
"","2449","name-keyboard-response","15","43154","0.0-3.0-1.4","","","Probe","1080","622","6","121"
"","null","html-keyboard-response","16","44155","0.0-3.0-0.5","<div style=""font-size:60px;"">+</div>","null","fixation","","","",""
"","2662","name-keyboard-response","17","46824","0.0-3.0-1.5","","","Probe","1068","154","0","40"
"","null","html-keyboard-response","18","47825","0.0-3.0-0.6","<div style=""font-size:60px;"">+</div>","null","fixation","","","",""
"","2705","name-keyboard-response","19","50537","0.0-3.0-1.6","","","Probe","1063","223","1","174"
"","null","html-keyboard-response","20","51538","0.0-3.0-0.7","<div style=""font-size:60px;"">+</div>","null","fixation","","","",""
"","1636","name-keyboard-response","21","53178","0.0-3.0-1.7","","","Probe","1062","223","1","16"
"","null","html-keyboard-response","22","54179","0.0-3.0-0.8","<div style=""font-size:60px;"">+</div>","null","fixation","","","",""
"","1751","name-keyboard-response","23","55936","0.0-3.0-1.8","","","Probe","1051","128","0","54"
"","null","html-keyboard-response","24","56937","0.0-3.0-0.9","<div style=""font-size:60px;"">+</div>","null","fixation","","","",""
"","3807","name-keyboard-response","25","60750","0.0-3.0-1.9","","","Probe","1044","216","1","175"
"","null","html-keyboard-response","26","61754","0.0-3.0-0.10","<div style=""font-size:60px;"">+</div>","null","fixation","","","",""
"","2231","name-keyboard-response","27","63990","0.0-3.0-1.10","","","Probe","1079","566","5","165"
"","null","html-keyboard-response","28","64991","0.0-3.0-0.11","<div style=""font-size:60px;"">+</div>","null","fixation","","","",""
"","2020","name-keyboard-response","29","67016","0.0-3.0-1.11","","","Probe","1065","473","4","152"
"","null","html-keyboard-response","30","68018","0.0-3.0-0.12","<div style=""font-size:60px;"">+</div>","null","fixation","","","",""
"","2389","name-keyboard-response","31","70413","0.0-3.0-1.12","","","Probe","1063","216","1","4"
"","null","html-keyboard-response","32","71415","0.0-3.0-0.13","<div style=""font-size:60px;"">+</div>","null","fixation","","","",""
"","2096","name-keyboard-response","33","73518","0.0-3.0-1.13","","","Probe","1080","309","2","101"
"","null","html-keyboard-response","34","74519","0.0-3.0-0.14","<div style=""font-size:60px;"">+</div>","null","fixation","","","",""
"","1919","name-keyboard-response","35","76445","0.0-3.0-1.14","","","Probe","1080","633","6","129"
"","null","html-keyboard-response","36","77446","0.0-3.0-0.15","<div style=""font-size:60px;"">+</div>","null","fixation","","","",""
"","3784","name-keyboard-response","37","81236","0.0-3.0-1.15","","","Probe","1050","376","3","64"
"","null","html-keyboard-response","38","82236","0.0-3.0-0.16","<div style=""font-size:60px;"">+</div>","null","fixation","","","",""
"","2043","name-keyboard-response","39","84283","0.0-3.0-1.16","","","Probe","1074","324","2","116"
"","null","html-keyboard-response","40","85284","0.0-3.0-0.17","<div style=""font-size:60px;"">+</div>","null","fixation","","","",""
"","1459","name-keyboard-response","41","86746","0.0-3.0-1.17","","","Probe","1072","303","2","103"
"","null","html-keyboard-response","42","87747","0.0-3.0-0.18","<div style=""font-size:60px;"">+</div>","null","fixation","","","",""
"","1502","name-keyboard-response","43","89255","0.0-3.0-1.18","","","Probe","1036","296","2","95"
"","null","html-keyboard-response","44","90256","0.0-3.0-0.19","<div style=""font-size:60px;"">+</div>","null","fixation","","","",""
"","6859","name-keyboard-response","45","97123","0.0-3.0-1.19","","","Probe","1034","147","0","35"
"","null","html-keyboard-response","46","98124","0.0-3.0-0.20","<div style=""font-size:60px;"">+</div>","null","fixation","","","",""
"","2285","name-keyboard-response","47","100418","0.0-3.0-1.20","","","Probe","1096","642","6","131"
"","null","html-keyboard-response","48","101419","0.0-3.0-0.21","<div style=""font-size:60px;"">+</div>","null","fixation","","","",""
"","1737","name-keyboard-response","49","103160","0.0-3.0-1.21","","","Probe","1053","452","4","143"
"","null","html-keyboard-response","50","104162","0.0-3.0-0.22","<div style=""font-size:60px;"">+</div>","null","fixation","","","",""
"","5302","name-keyboard-response","51","109470","0.0-3.0-1.22","","","Probe","1052","452","4","135"
"","null","html-keyboard-response","52","110471","0.0-3.0-0.23","<div style=""font-size:60px;"">+</div>","null","fixation","","","",""
"","2076","name-keyboard-response","53","112554","0.0-3.0-1.23","","","Probe","1068","234","1","178"
"","null","html-keyboard-response","54","113554","0.0-3.0-0.24","<div style=""font-size:60px;"">+</div>","null","fixation","","","",""
"","3676","name-keyboard-response","55","117240","0.0-3.0-1.24","","","Probe","1045","608","6","133"
"","null","html-keyboard-response","56","118242","0.0-3.0-0.25","<div style=""font-size:60px;"">+</div>","null","fixation","","","",""
"","1753","name-keyboard-response","57","120005","0.0-3.0-1.25","","","Probe","1036","290","2","102"
"","null","html-keyboard-response","58","121007","0.0-3.0-0.26","<div style=""font-size:60px;"">+</div>","null","fixation","","","",""
"","2141","name-keyboard-response","59","123152","0.0-3.0-1.26","","","Probe","1084","382","3","78"
"","null","html-keyboard-response","60","124153","0.0-3.0-0.27","<div style=""font-size:60px;"">+</div>","null","fixation","","","",""
"","1758","name-keyboard-response","61","125919","0.0-3.0-1.27","","","Probe","1100","131","0","58"
"","null","html-keyboard-response","62","126921","0.0-3.0-0.28","<div style=""font-size:60px;"">+</div>","null","fixation","","","",""
"","2708","name-keyboard-response","63","129635","0.0-3.0-1.28","","","Probe","1044","453","4","148"
"","null","html-keyboard-response","64","130636","0.0-3.0-0.29","<div style=""font-size:60px;"">+</div>","null","fixation","","","",""
"","2424","name-keyboard-response","65","133064","0.0-3.0-1.29","","","Probe","1016","232","1","20"
"","null","html-keyboard-response","66","134066","0.0-3.0-0.30","<div style=""font-size:60px;"">+</div>","null","fixation","","","",""
"","3679","name-keyboard-response","67","137757","0.0-3.0-1.30","","","Probe","1048","236","1","177"
"","null","html-keyboard-response","68","138759","0.0-3.0-0.31","<div style=""font-size:60px;"">+</div>","null","fixation","","","",""
"","1971","name-keyboard-response","69","140734","0.0-3.0-1.31","","","Probe","1050","297","2","90"
"","null","html-keyboard-response","70","141736","0.0-3.0-0.32","<div style=""font-size:60px;"">+</div>","null","fixation","","","",""
"","6679","name-keyboard-response","71","148423","0.0-3.0-1.32","","","Probe","1070","211","1","27"
"","null","html-keyboard-response","72","149424","0.0-3.0-0.33","<div style=""font-size:60px;"">+</div>","null","fixation","","","",""
"","2169","name-keyboard-response","73","151605","0.0-3.0-1.33","","","Probe","1082","542","5","168"
"","null","html-keyboard-response","74","152607","0.0-3.0-0.34","<div style=""font-size:60px;"">+</div>","null","fixation","","","",""
"","2084","name-keyboard-response","75","154697","0.0-3.0-1.34","","","Probe","1044","317","2","107"
"","null","html-keyboard-response","76","155699","0.0-3.0-0.35","<div style=""font-size:60px;"">+</div>","null","fixation","","","",""
"","1535","name-keyboard-response","77","157237","0.0-3.0-1.35","","","Probe","1068","298","2","110"
"","null","html-keyboard-response","78","158238","0.0-3.0-0.36","<div style=""font-size:60px;"">+</div>","null","fixation","","","",""
"","1470","name-keyboard-response","79","159712","0.0-3.0-1.36","","","Probe","1057","306","2","100"
"","null","html-keyboard-response","80","160713","0.0-3.0-0.37","<div style=""font-size:60px;"">+</div>","null","fixation","","","",""
"","12731","name-keyboard-response","81","173458","0.0-3.0-1.37","","","Probe","1054","145","0","30"
"","null","html-keyboard-response","82","174463","0.0-3.0-0.38","<div style=""font-size:60px;"">+</div>","null","fixation","","","",""
"","2772","name-keyboard-response","83","177243","0.0-3.0-1.38","","","Probe","1088","560","5","169"
"","null","html-keyboard-response","84","178245","0.0-3.0-0.39","<div style=""font-size:60px;"">+</div>","null","fixation","","","",""
"","1676","name-keyboard-response","85","179929","0.0-3.0-1.39","","","Probe","1025","216","1","21"
"","null","html-keyboard-response","86","180930","0.0-3.0-0.40","<div style=""font-size:60px;"">+</div>","null","fixation","","","",""
"","1491","name-keyboard-response","87","182426","0.0-3.0-1.40","","","Probe","1037","390","3","79"
"","null","html-keyboard-response","88","183427","0.0-3.0-0.41","<div style=""font-size:60px;"">+</div>","null","fixation","","","",""
"","2511","name-keyboard-response","89","185952","0.0-3.0-1.41","","","Probe","1043","624","6","125"
"","null","html-keyboard-response","90","186953","0.0-3.0-0.42","<div style=""font-size:60px;"">+</div>","null","fixation","","","",""
"","1506","name-keyboard-response","91","188467","0.0-3.0-1.42","","","Probe","1089","395","3","68"
"","null","html-keyboard-response","92","189469","0.0-3.0-0.43","<div style=""font-size:60px;"">+</div>","null","fixation","","","",""
"","1492","name-keyboard-response","93","190964","0.0-3.0-1.43","","","Probe","1058","307","2","109"
"","null","html-keyboard-response","94","191966","0.0-3.0-0.44","<div style=""font-size:60px;"">+</div>","null","fixation","","","",""
"","1987","name-keyboard-response","95","193959","0.0-3.0-1.44","","","Probe","1039","608","6","124"
"","null","html-keyboard-response","96","194961","0.0-3.0-0.45","<div style=""font-size:60px;"">+</div>","null","fixation","","","",""
"","4995","name-keyboard-response","97","199971","0.0-3.0-1.45","","","Probe","1057","375","3","88"
"","null","html-keyboard-response","98","200973","0.0-3.0-0.46","<div style=""font-size:60px;"">+</div>","null","fixation","","","",""
"","2200","name-keyboard-response","99","203182","0.0-3.0-1.46","","","Probe","1047","614","6","132"
"","null","html-keyboard-response","100","204184","0.0-3.0-0.47","<div style=""font-size:60px;"">+</div>","null","fixation","","","",""
"","3719","name-keyboard-response","101","207909","0.0-3.0-1.47","","","Probe","1068","138","0","28"
"","null","html-keyboard-response","102","208911","0.0-3.0-0.48","<div style=""font-size:60px;"">+</div>","null","fixation","","","",""
"","2118","name-keyboard-response","103","211036","0.0-3.0-1.48","","","Probe","1051","470","4","141"
"","null","html-keyboard-response","104","212036","0.0-3.0-0.49","<div style=""font-size:60px;"">+</div>","null","fixation","","","",""
"","1254","name-keyboard-response","105","213294","0.0-3.0-1.49","","","Probe","1067","295","2","112"
"","null","html-keyboard-response","106","214296","0.0-3.0-0.50","<div style=""font-size:60px;"">+</div>","null","fixation","","","",""
"","3311","name-keyboard-response","107","217619","0.0-3.0-1.50","","","Probe","1022","623","6","127"
"","null","html-keyboard-response","108","218621","0.0-3.0-0.51","<div style=""font-size:60px;"">+</div>","null","fixation","","","",""
"","2241","name-keyboard-response","109","220869","0.0-3.0-1.51","","","Probe","1048","148","0","41"
"","null","html-keyboard-response","110","221870","0.0-3.0-0.52","<div style=""font-size:60px;"">+</div>","null","fixation","","","",""
"","2479","name-keyboard-response","111","224354","0.0-3.0-1.52","","","Probe","1053","309","2","119"
"","null","html-keyboard-response","112","225355","0.0-3.0-0.53","<div style=""font-size:60px;"">+</div>","null","fixation","","","",""
"","2262","name-keyboard-response","113","227627","0.0-3.0-1.53","","","Probe","1055","310","2","122"
"","null","html-keyboard-response","114","228629","0.0-3.0-0.54","<div style=""font-size:60px;"">+</div>","null","fixation","","","",""
"","1368","name-keyboard-response","115","230000","0.0-3.0-1.54","","","Probe","1058","301","2","113"
"","null","html-keyboard-response","116","231001","0.0-3.0-0.55","<div style=""font-size:60px;"">+</div>","null","fixation","","","",""
"","1391","name-keyboard-response","117","232396","0.0-3.0-1.55","","","Probe","1081","144","0","56"
"","null","html-keyboard-response","118","233397","0.0-3.0-0.56","<div style=""font-size:60px;"">+</div>","null","fixation","","","",""
"","3074","name-keyboard-response","119","236483","0.0-3.0-1.56","","","Probe","1072","146","0","38"
"","null","html-keyboard-response","120","237484","0.0-3.0-0.57","<div style=""font-size:60px;"">+</div>","null","fixation","","","",""
"","1632","name-keyboard-response","121","239125","0.0-3.0-1.57","","","Probe","1040","306","2","117"
"","null","html-keyboard-response","122","240127","0.0-3.0-0.58","<div style=""font-size:60px;"">+</div>","null","fixation","","","",""
"","1468","name-keyboard-response","123","241605","0.0-3.0-1.58","","","Probe","1064","145","0","39"
"","null","html-keyboard-response","124","242606","0.0-3.0-0.59","<div style=""font-size:60px;"">+</div>","null","fixation","","","",""
"","1621","name-keyboard-response","125","244231","0.0-3.0-1.59","","","Probe","1060","229","1","11"
"","null","html-keyboard-response","126","245233","0.0-3.0-0.60","<div style=""font-size:60px;"">+</div>","null","fixation","","","",""
"","1234","name-keyboard-response","127","246474","0.0-3.0-1.60","","","Probe","1073","212","1","6"
"","null","html-keyboard-response","128","247475","0.0-3.0-0.61","<div style=""font-size:60px;"">+</div>","null","fixation","","","",""
"","1263","name-keyboard-response","129","248741","0.0-3.0-1.61","","","Probe","1067","220","1","7"
"","null","html-keyboard-response","130","249742","0.0-3.0-0.62","<div style=""font-size:60px;"">+</div>","null","fixation","","","",""
"","1426","name-keyboard-response","131","251172","0.0-3.0-1.62","","","Probe","1102","134","0","32"
"","null","html-keyboard-response","132","252173","0.0-3.0-0.63","<div style=""font-size:60px;"">+</div>","null","fixation","","","",""
"","1616","name-keyboard-response","133","253793","0.0-3.0-1.63","","","Probe","1091","137","0","52"
"","null","html-keyboard-response","134","254795","0.0-3.0-0.64","<div style=""font-size:60px;"">+</div>","null","fixation","","","",""
"","1948","name-keyboard-response","135","256753","0.0-3.0-1.64","","","Probe","1062","470","4","136"
"","null","html-keyboard-response","136","257755","0.0-3.0-0.65","<div style=""font-size:60px;"">+</div>","null","fixation","","","",""
"","1986","name-keyboard-response","137","259745","0.0-3.0-1.65","","","Probe","1050","402","3","82"
"","null","html-keyboard-response","138","260746","0.0-3.0-0.66","<div style=""font-size:60px;"">+</div>","null","fixation","","","",""
"","3298","name-keyboard-response","139","264055","0.0-3.0-1.66","","","Probe","1040","621","6","137"
"","null","html-keyboard-response","140","265057","0.0-3.0-0.67","<div style=""font-size:60px;"">+</div>","null","fixation","","","",""
"","1872","name-keyboard-response","141","266936","0.0-3.0-1.67","","","Probe","1075","216","1","1"
"","null","html-keyboard-response","142","267937","0.0-3.0-0.68","<div style=""font-size:60px;"">+</div>","null","fixation","","","",""
"","1890","name-keyboard-response","143","269838","0.0-3.0-1.68","","","Probe","1059","218","1","15"
"","null","html-keyboard-response","144","270839","0.0-3.0-0.69","<div style=""font-size:60px;"">+</div>","null","fixation","","","",""
"","1355","name-keyboard-response","145","272197","0.0-3.0-1.69","","","Probe","1086","151","0","45"
"","null","html-keyboard-response","146","273198","0.0-3.0-0.70","<div style=""font-size:60px;"">+</div>","null","fixation","","","",""
"","1922","name-keyboard-response","147","275125","0.0-3.0-1.70","","","Probe","1081","398","3","69"
"","null","html-keyboard-response","148","276126","0.0-3.0-0.71","<div style=""font-size:60px;"">+</div>","null","fixation","","","",""
"","2682","name-keyboard-response","149","278815","0.0-3.0-1.71","","","Probe","1021","298","2","93"
"","null","html-keyboard-response","150","279816","0.0-3.0-0.72","<div style=""font-size:60px;"">+</div>","null","fixation","","","",""
"","1973","name-keyboard-response","151","281801","0.0-3.0-1.72","","","Probe","1078","517","4","166"
"","null","html-keyboard-response","152","282802","0.0-3.0-0.73","<div style=""font-size:60px;"">+</div>","null","fixation","","","",""
"","3358","name-keyboard-response","153","286174","0.0-3.0-1.73","","","Probe","1019","468","4","155"
"","null","html-keyboard-response","154","287176","0.0-3.0-0.74","<div style=""font-size:60px;"">+</div>","null","fixation","","","",""
"","2793","name-keyboard-response","155","289974","0.0-3.0-1.74","","","Probe","1075","163","0","53"
"","null","html-keyboard-response","156","290976","0.0-3.0-0.75","<div style=""font-size:60px;"">+</div>","null","fixation","","","",""
"","1591","name-keyboard-response","157","292573","0.0-3.0-1.75","","","Probe","1065","315","2","118"
"","null","html-keyboard-response","158","293574","0.0-3.0-0.76","<div style=""font-size:60px;"">+</div>","null","fixation","","","",""
"","1359","name-keyboard-response","159","294944","0.0-3.0-1.76","","","Probe","1067","300","2","111"
"","null","html-keyboard-response","160","295946","0.0-3.0-0.77","<div style=""font-size:60px;"">+</div>","null","fixation","","","",""
"","1324","name-keyboard-response","161","297273","0.0-3.0-1.77","","","Probe","1087","224","1","9"
"","null","html-keyboard-response","162","298274","0.0-3.0-0.78","<div style=""font-size:60px;"">+</div>","null","fixation","","","",""
"","1763","name-keyboard-response","163","300042","0.0-3.0-1.78","","","Probe","1055","469","4","154"
"","null","html-keyboard-response","164","301046","0.0-3.0-0.79","<div style=""font-size:60px;"">+</div>","null","fixation","","","",""
"","2253","name-keyboard-response","165","303305","0.0-3.0-1.79","","","Probe","1025","388","3","74"
"","null","html-keyboard-response","166","304306","0.0-3.0-0.80","<div style=""font-size:60px;"">+</div>","null","fixation","","","",""
"","2964","name-keyboard-response","167","307276","0.0-3.0-1.80","","","Probe","1023","521","5","162"
"","null","html-keyboard-response","168","308277","0.0-3.0-0.81","<div style=""font-size:60px;"">+</div>","null","fixation","","","",""
"","1873","name-keyboard-response","169","310155","0.0-3.0-1.81","","","Probe","1048","460","4","149"
"","null","html-keyboard-response","170","311156","0.0-3.0-0.82","<div style=""font-size:60px;"">+</div>","null","fixation","","","",""
"","1980","name-keyboard-response","171","313147","0.0-3.0-1.82","","","Probe","1060","297","2","98"
"","null","html-keyboard-response","172","314149","0.0-3.0-0.83","<div style=""font-size:60px;"">+</div>","null","fixation","","","",""
"","1755","name-keyboard-response","173","315914","0.0-3.0-1.83","","","Probe","1058","468","4","150"
"","null","html-keyboard-response","174","316915","0.0-3.0-0.84","<div style=""font-size:60px;"">+</div>","null","fixation","","","",""
"","2122","name-keyboard-response","175","319042","0.0-3.0-1.84","","","Probe","1092","127","0","48"
"","null","html-keyboard-response","176","320044","0.0-3.0-0.85","<div style=""font-size:60px;"">+</div>","null","fixation","","","",""
"","2019","name-keyboard-response","177","322068","0.0-3.0-1.85","","","Probe","1079","223","1","172"
"","null","html-keyboard-response","178","323069","0.0-3.0-0.86","<div style=""font-size:60px;"">+</div>","null","fixation","","","",""
"","1672","name-keyboard-response","179","324744","0.0-3.0-1.86","","","Probe","1080","221","1","176"
"","null","html-keyboard-response","180","325746","0.0-3.0-0.87","<div style=""font-size:60px;"">+</div>","null","fixation","","","",""
"","3106","name-keyboard-response","181","328864","0.0-3.0-1.87","","","Probe","1040","476","4","161"
"","null","html-keyboard-response","182","329866","0.0-3.0-0.88","<div style=""font-size:60px;"">+</div>","null","fixation","","","",""
"","7970","name-keyboard-response","183","337846","0.0-3.0-1.88","","","Probe","1112","555","5","170"
"","null","html-keyboard-response","184","338847","0.0-3.0-0.89","<div style=""font-size:60px;"">+</div>","null","fixation","","","",""
"","2251","name-keyboard-response","185","341104","0.0-3.0-1.89","","","Probe","1067","371","3","84"
"","null","html-keyboard-response","186","342105","0.0-3.0-0.90","<div style=""font-size:60px;"">+</div>","null","fixation","","","",""
"","2008","name-keyboard-response","187","344118","0.0-3.0-1.90","","","Probe","1067","240","1","5"
"","null","html-keyboard-response","188","345120","0.0-3.0-0.91","<div style=""font-size:60px;"">+</div>","null","fixation","","","",""
"","2024","name-keyboard-response","189","347155","0.0-3.0-1.91","","","Probe","1073","161","0","44"
"","null","html-keyboard-response","190","348157","0.0-3.0-0.92","<div style=""font-size:60px;"">+</div>","null","fixation","","","",""
"","1738","name-keyboard-response","191","349899","0.0-3.0-1.92","","","Probe","1044","245","1","173"
"","null","html-keyboard-response","192","350907","0.0-3.0-0.93","<div style=""font-size:60px;"">+</div>","null","fixation","","","",""
"","1936","name-keyboard-response","193","352848","0.0-3.0-1.93","","","Probe","1058","398","3","72"
"","null","html-keyboard-response","194","353849","0.0-3.0-0.94","<div style=""font-size:60px;"">+</div>","null","fixation","","","",""
"","2323","name-keyboard-response","195","356178","0.0-3.0-1.94","","","Probe","1031","245","1","8"
"","null","html-keyboard-response","196","357180","0.0-3.0-0.95","<div style=""font-size:60px;"">+</div>","null","fixation","","","",""
"","3947","name-keyboard-response","197","361139","0.0-3.0-1.95","","","Probe","1023","376","3","85"
"","null","html-keyboard-response","198","362140","0.0-3.0-0.96","<div style=""font-size:60px;"">+</div>","null","fixation","","","",""
"","1627","name-keyboard-response","199","363770","0.0-3.0-1.96","","","Probe","1048","129","0","50"
"","null","html-keyboard-response","200","364771","0.0-3.0-0.97","<div style=""font-size:60px;"">+</div>","null","fixation","","","",""
"","3056","name-keyboard-response","201","367833","0.0-3.0-1.97","","","Probe","1058","145","0","42"
"","null","html-keyboard-response","202","368841","0.0-3.0-0.98","<div style=""font-size:60px;"">+</div>","null","fixation","","","",""
"","2203","name-keyboard-response","203","371049","0.0-3.0-1.98","","","Probe","1049","215","1","26"
"","null","html-keyboard-response","204","372051","0.0-3.0-0.99","<div style=""font-size:60px;"">+</div>","null","fixation","","","",""
"","2021","name-keyboard-response","205","374074","0.0-3.0-1.99","","","Probe","1076","160","0","57"
"","null","html-keyboard-response","206","375076","0.0-3.0-0.100","<div style=""font-size:60px;"">+</div>","null","fixation","","","",""
"","3956","name-keyboard-response","207","379039","0.0-3.0-1.100","","","Probe","1081","456","4","158"
"","null","html-keyboard-response","208","380042","0.0-3.0-0.101","<div style=""font-size:60px;"">+</div>","null","fixation","","","",""
"","2426","name-keyboard-response","209","382487","0.0-3.0-1.101","","","Probe","1022","286","2","114"
"","null","html-keyboard-response","210","383488","0.0-3.0-0.102","<div style=""font-size:60px;"">+</div>","null","fixation","","","",""
"","2249","name-keyboard-response","211","385744","0.0-3.0-1.102","","","Probe","1047","384","3","81"
"","null","html-keyboard-response","212","386745","0.0-3.0-0.103","<div style=""font-size:60px;"">+</div>","null","fixation","","","",""
"","3278","name-keyboard-response","213","390031","0.0-3.0-1.103","","","Probe","1043","224","1","14"
"","null","html-keyboard-response","214","391038","0.0-3.0-0.104","<div style=""font-size:60px;"">+</div>","null","fixation","","","",""
"","1797","name-keyboard-response","215","392840","0.0-3.0-1.104","","","Probe","1052","386","3","71"
"","null","html-keyboard-response","216","393841","0.0-3.0-0.105","<div style=""font-size:60px;"">+</div>","null","fixation","","","",""
"","3135","name-keyboard-response","217","396982","0.0-3.0-1.105","","","Probe","1049","162","0","63"
"","null","html-keyboard-response","218","397982","0.0-3.0-0.106","<div style=""font-size:60px;"">+</div>","null","fixation","","","",""
"","1502","name-keyboard-response","219","399488","0.0-3.0-1.106","","","Probe","1070","288","2","115"
"","null","html-keyboard-response","220","400489","0.0-3.0-0.107","<div style=""font-size:60px;"">+</div>","null","fixation","","","",""
"","2212","name-keyboard-response","221","402706","0.0-3.0-1.107","","","Probe","1071","617","6","126"
"","null","html-keyboard-response","222","403708","0.0-3.0-0.108","<div style=""font-size:60px;"">+</div>","null","fixation","","","",""
"","2057","name-keyboard-response","223","405778","0.0-3.0-1.108","","","Probe","1052","378","3","73"
"","null","html-keyboard-response","224","406780","0.0-3.0-0.109","<div style=""font-size:60px;"">+</div>","null","fixation","","","",""
"","9927","name-keyboard-response","225","416718","0.0-3.0-1.109","","","Probe","1105","704","7","171"
"","null","html-keyboard-response","226","417720","0.0-3.0-0.110","<div style=""font-size:60px;"">+</div>","null","fixation","","","",""
"","1925","name-keyboard-response","227","419660","0.0-3.0-1.110","","","Probe","1088","459","4","153"
"","null","html-keyboard-response","228","420661","0.0-3.0-0.111","<div style=""font-size:60px;"">+</div>","null","fixation","","","",""
"","5203","name-keyboard-response","229","425874","0.0-3.0-1.111","","","Probe","1041","143","0","34"
"","null","html-keyboard-response","230","426875","0.0-3.0-0.112","<div style=""font-size:60px;"">+</div>","null","fixation","","","",""
"","2668","name-keyboard-response","231","429550","0.0-3.0-1.112","","","Probe","1087","605","6","134"
"","null","html-keyboard-response","232","430550","0.0-3.0-0.113","<div style=""font-size:60px;"">+</div>","null","fixation","","","",""
"","4291","name-keyboard-response","233","434851","0.0-3.0-1.113","","","Probe","1116","701","7","164"
"","null","html-keyboard-response","234","435853","0.0-3.0-0.114","<div style=""font-size:60px;"">+</div>","null","fixation","","","",""
"","3176","name-keyboard-response","235","439044","0.0-3.0-1.114","","","Probe","1050","124","0","37"
"","null","html-keyboard-response","236","440046","0.0-3.0-0.115","<div style=""font-size:60px;"">+</div>","null","fixation","","","",""
"","6326","name-keyboard-response","237","446382","0.0-3.0-1.115","","","Probe","1063","697","7","163"
"","null","html-keyboard-response","238","447383","0.0-3.0-0.116","<div style=""font-size:60px;"">+</div>","null","fixation","","","",""
"","2060","name-keyboard-response","239","449450","0.0-3.0-1.116","","","Probe","1071","389","3","70"
"","null","html-keyboard-response","240","450451","0.0-3.0-0.117","<div style=""font-size:60px;"">+</div>","null","fixation","","","",""
"","2300","name-keyboard-response","241","452757","0.0-3.0-1.117","","","Probe","1056","633","6","130"
"","null","html-keyboard-response","242","453758","0.0-3.0-0.118","<div style=""font-size:60px;"">+</div>","null","fixation","","","",""
"","1535","name-keyboard-response","243","455306","0.0-3.0-1.118","","","Probe","1041","303","2","120"
"","null","html-keyboard-response","244","456306","0.0-3.0-0.119","<div style=""font-size:60px;"">+</div>","null","fixation","","","",""
"","1778","name-keyboard-response","245","458089","0.0-3.0-1.119","","","Probe","1056","152","0","43"
"","null","html-keyboard-response","246","459090","0.0-3.0-0.120","<div style=""font-size:60px;"">+</div>","null","fixation","","","",""
"","2210","name-keyboard-response","247","461307","0.0-3.0-1.120","","","Probe","1039","476","4","142"
"","null","html-keyboard-response","248","462308","0.0-3.0-0.121","<div style=""font-size:60px;"">+</div>","null","fixation","","","",""
"","1535","name-keyboard-response","249","463848","0.0-3.0-1.121","","","Probe","1017","156","0","51"
"","null","html-keyboard-response","250","464850","0.0-3.0-0.122","<div style=""font-size:60px;"">+</div>","null","fixation","","","",""
"","1357","name-keyboard-response","251","466220","0.0-3.0-1.122","","","Probe","1014","300","2","104"
"","null","html-keyboard-response","252","467222","0.0-3.0-0.123","<div style=""font-size:60px;"">+</div>","null","fixation","","","",""
"","3428","name-keyboard-response","253","470655","0.0-3.0-1.123","","","Probe","1055","686","7","157"
"","null","html-keyboard-response","254","471657","0.0-3.0-0.124","<div style=""font-size:60px;"">+</div>","null","fixation","","","",""
"","2030","name-keyboard-response","255","473693","0.0-3.0-1.124","","","Probe","1043","531","5","160"
"","null","html-keyboard-response","256","474694","0.0-3.0-0.125","<div style=""font-size:60px;"">+</div>","null","fixation","","","",""
"","2941","name-keyboard-response","257","477643","0.0-3.0-1.125","","","Probe","1034","206","1","13"
"","null","html-keyboard-response","258","478644","0.0-3.0-0.126","<div style=""font-size:60px;"">+</div>","null","fixation","","","",""
"","1488","name-keyboard-response","259","480136","0.0-3.0-1.126","","","Probe","1044","300","2","106"
"","null","html-keyboard-response","260","481136","0.0-3.0-0.127","<div style=""font-size:60px;"">+</div>","null","fixation","","","",""
"","1696","name-keyboard-response","261","482836","0.0-3.0-1.127","","","Probe","1098","473","4","145"
"","null","html-keyboard-response","262","483837","0.0-3.0-0.128","<div style=""font-size:60px;"">+</div>","null","fixation","","","",""
"","1865","name-keyboard-response","263","485717","0.0-3.0-1.128","","","Probe","1071","131","0","46"
"","null","html-keyboard-response","264","486719","0.0-3.0-0.129","<div style=""font-size:60px;"">+</div>","null","fixation","","","",""
"","1817","name-keyboard-response","265","488541","0.0-3.0-1.129","","","Probe","1085","385","3","76"
"","null","html-keyboard-response","266","489552","0.0-3.0-0.130","<div style=""font-size:60px;"">+</div>","null","fixation","","","",""
"","4676","name-keyboard-response","267","494237","0.0-3.0-1.130","","","Probe","1092","553","5","159"
"","null","html-keyboard-response","268","495257","0.0-3.0-0.131","<div style=""font-size:60px;"">+</div>","null","fixation","","","",""
"","2617","name-keyboard-response","269","497878","0.0-3.0-1.131","","","Probe","1054","146","0","61"
"","null","html-keyboard-response","270","498879","0.0-3.0-0.132","<div style=""font-size:60px;"">+</div>","null","fixation","","","",""
"","1818","name-keyboard-response","271","500701","0.0-3.0-1.132","","","Probe","1082","378","3","75"
"","null","html-keyboard-response","272","501703","0.0-3.0-0.133","<div style=""font-size:60px;"">+</div>","null","fixation","","","",""
"","2708","name-keyboard-response","273","504416","0.0-3.0-1.133","","","Probe","1038","154","0","36"
"","null","html-keyboard-response","274","505418","0.0-3.0-0.134","<div style=""font-size:60px;"">+</div>","null","fixation","","","",""
"","1758","name-keyboard-response","275","507181","0.0-3.0-1.134","","","Probe","1056","304","2","99"
"","null","html-keyboard-response","276","508181","0.0-3.0-0.135","<div style=""font-size:60px;"">+</div>","null","fixation","","","",""
"","1358","name-keyboard-response","277","509543","0.0-3.0-1.135","","","Probe","1051","292","2","96"
"","null","html-keyboard-response","278","510544","0.0-3.0-0.136","<div style=""font-size:60px;"">+</div>","null","fixation","","","",""
"","6735","name-keyboard-response","279","517288","0.0-3.0-1.136","","","Probe","1056","557","5","167"
"","null","html-keyboard-response","280","518289","0.0-3.0-0.137","<div style=""font-size:60px;"">+</div>","null","fixation","","","",""
"","1645","name-keyboard-response","281","519939","0.0-3.0-1.137","","","Probe","1051","394","3","65"
"","null","html-keyboard-response","282","520940","0.0-3.0-0.138","<div style=""font-size:60px;"">+</div>","null","fixation","","","",""
"","1659","name-keyboard-response","283","522615","0.0-3.0-1.138","","","Probe","1054","318","2","83"
"","null","html-keyboard-response","284","523616","0.0-3.0-0.139","<div style=""font-size:60px;"">+</div>","null","fixation","","","",""
"","1662","name-keyboard-response","285","525281","0.0-3.0-1.139","","","Probe","1064","212","1","22"
"","null","html-keyboard-response","286","526282","0.0-3.0-0.140","<div style=""font-size:60px;"">+</div>","null","fixation","","","",""
"","1988","name-keyboard-response","287","528273","0.0-3.0-1.140","","","Probe","1053","297","2","105"
"","null","html-keyboard-response","288","529275","0.0-3.0-0.141","<div style=""font-size:60px;"">+</div>","null","fixation","","","",""
"","2044","name-keyboard-response","289","531335","0.0-3.0-1.141","","","Probe","1061","461","4","156"
"","null","html-keyboard-response","290","532336","0.0-3.0-0.142","<div style=""font-size:60px;"">+</div>","null","fixation","","","",""
"","1727","name-keyboard-response","291","534080","0.0-3.0-1.142","","","Probe","1074","379","3","91"
"","null","html-keyboard-response","292","535081","0.0-3.0-0.143","<div style=""font-size:60px;"">+</div>","null","fixation","","","",""
"","2335","name-keyboard-response","293","537422","0.0-3.0-1.143","","","Probe","1018","624","6","128"
"","null","html-keyboard-response","294","538424","0.0-3.0-0.144","<div style=""font-size:60px;"">+</div>","null","fixation","","","",""
"","1734","name-keyboard-response","295","540161","0.0-3.0-1.144","","","Probe","1053","470","4","144"
"","null","html-keyboard-response","296","541162","0.0-3.0-0.145","<div style=""font-size:60px;"">+</div>","null","fixation","","","",""
"","3588","name-keyboard-response","297","544759","0.0-3.0-1.145","","","Probe","1038","457","4","140"
"","null","html-keyboard-response","298","545761","0.0-3.0-0.146","<div style=""font-size:60px;"">+</div>","null","fixation","","","",""
"","1510","name-keyboard-response","299","547274","0.0-3.0-1.146","","","Probe","1049","380","3","67"
"","null","html-keyboard-response","300","548276","0.0-3.0-0.147","<div style=""font-size:60px;"">+</div>","null","fixation","","","",""
"","1808","name-keyboard-response","301","550087","0.0-3.0-1.147","","","Probe","1046","222","1","18"
"","null","html-keyboard-response","302","551089","0.0-3.0-0.148","<div style=""font-size:60px;"">+</div>","null","fixation","","","",""
"","1807","name-keyboard-response","303","552900","0.0-3.0-1.148","","","Probe","1079","311","2","86"
"","null","html-keyboard-response","304","553901","0.0-3.0-0.149","<div style=""font-size:60px;"">+</div>","null","fixation","","","",""
"","2088","name-keyboard-response","305","555994","0.0-3.0-1.149","","","Probe","1032","219","1","24"
"","null","html-keyboard-response","306","556995","0.0-3.0-0.150","<div style=""font-size:60px;"">+</div>","null","fixation","","","",""
"","2640","name-keyboard-response","307","559651","0.0-3.0-1.150","","","Probe","1052","471","4","139"
"","null","html-keyboard-response","308","560654","0.0-3.0-0.151","<div style=""font-size:60px;"">+</div>","null","fixation","","","",""
"","1615","name-keyboard-response","309","562283","0.0-3.0-1.151","","","Probe","1081","151","0","49"
"","null","html-keyboard-response","310","563285","0.0-3.0-0.152","<div style=""font-size:60px;"">+</div>","null","fixation","","","",""
"","1963","name-keyboard-response","311","565253","0.0-3.0-1.152","","","Probe","1084","147","0","47"
"","null","html-keyboard-response","312","566253","0.0-3.0-0.153","<div style=""font-size:60px;"">+</div>","null","fixation","","","",""
"","1615","name-keyboard-response","313","567873","0.0-3.0-1.153","","","Probe","1072","233","1","3"
"","null","html-keyboard-response","314","568874","0.0-3.0-0.154","<div style=""font-size:60px;"">+</div>","null","fixation","","","",""
"","4147","name-keyboard-response","315","573027","0.0-3.0-1.154","","","Probe","1081","388","3","80"
"","null","html-keyboard-response","316","574029","0.0-3.0-0.155","<div style=""font-size:60px;"">+</div>","null","fixation","","","",""
"","2187","name-keyboard-response","317","576221","0.0-3.0-1.155","","","Probe","1079","135","0","60"
"","null","html-keyboard-response","318","577223","0.0-3.0-0.156","<div style=""font-size:60px;"">+</div>","null","fixation","","","",""
"","2244","name-keyboard-response","319","579471","0.0-3.0-1.156","","","Probe","1055","218","1","0"
"","null","html-keyboard-response","320","580472","0.0-3.0-0.157","<div style=""font-size:60px;"">+</div>","null","fixation","","","",""
"","2223","name-keyboard-response","321","582712","0.0-3.0-1.157","","","Probe","1038","311","2","94"
"","null","html-keyboard-response","322","583713","0.0-3.0-0.158","<div style=""font-size:60px;"">+</div>","null","fixation","","","",""
"","5350","name-keyboard-response","323","589070","0.0-3.0-1.158","","","Probe","1041","138","0","33"
"","null","html-keyboard-response","324","590072","0.0-3.0-0.159","<div style=""font-size:60px;"">+</div>","null","fixation","","","",""
"","2579","name-keyboard-response","325","592657","0.0-3.0-1.159","","","Probe","1031","145","0","31"
"","null","html-keyboard-response","326","593657","0.0-3.0-0.160","<div style=""font-size:60px;"">+</div>","null","fixation","","","",""
"","1672","name-keyboard-response","327","595345","0.0-3.0-1.160","","","Probe","1032","235","1","19"
"","null","html-keyboard-response","328","596346","0.0-3.0-0.161","<div style=""font-size:60px;"">+</div>","null","fixation","","","",""
"","2616","name-keyboard-response","329","598967","0.0-3.0-1.161","","","Probe","1031","298","2","108"
"","null","html-keyboard-response","330","599968","0.0-3.0-0.162","<div style=""font-size:60px;"">+</div>","null","fixation","","","",""
"","2762","name-keyboard-response","331","602749","0.0-3.0-1.162","","","Probe","1051","385","3","77"
"","null","html-keyboard-response","332","603751","0.0-3.0-0.163","<div style=""font-size:60px;"">+</div>","null","fixation","","","",""
"","3393","name-keyboard-response","333","607147","0.0-3.0-1.163","","","Probe","1069","242","1","179"
"","null","html-keyboard-response","334","608148","0.0-3.0-0.164","<div style=""font-size:60px;"">+</div>","null","fixation","","","",""
"","2244","name-keyboard-response","335","610397","0.0-3.0-1.164","","","Probe","1055","316","2","87"
"","null","html-keyboard-response","336","611398","0.0-3.0-0.165","<div style=""font-size:60px;"">+</div>","null","fixation","","","",""
"","2731","name-keyboard-response","337","614145","0.0-3.0-1.165","","","Probe","1059","467","4","151"
"","null","html-keyboard-response","338","615146","0.0-3.0-0.166","<div style=""font-size:60px;"">+</div>","null","fixation","","","",""
"","2097","name-keyboard-response","339","617249","0.0-3.0-1.166","","","Probe","1079","144","0","62"
"","null","html-keyboard-response","340","618250","0.0-3.0-0.167","<div style=""font-size:60px;"">+</div>","null","fixation","","","",""
"","1873","name-keyboard-response","341","620138","0.0-3.0-1.167","","","Probe","1080","137","0","59"
"","null","html-keyboard-response","342","621139","0.0-3.0-0.168","<div style=""font-size:60px;"">+</div>","null","fixation","","","",""
"","1920","name-keyboard-response","343","623065","0.0-3.0-1.168","","","Probe","1037","316","2","89"
"","null","html-keyboard-response","344","624066","0.0-3.0-0.169","<div style=""font-size:60px;"">+</div>","null","fixation","","","",""
"","1479","name-keyboard-response","345","625549","0.0-3.0-1.169","","","Probe","1045","243","1","17"
"","null","html-keyboard-response","346","626551","0.0-3.0-0.170","<div style=""font-size:60px;"">+</div>","null","fixation","","","",""
"","3584","name-keyboard-response","347","630142","0.0-3.0-1.170","","","Probe","1034","135","0","55"
"","null","html-keyboard-response","348","631143","0.0-3.0-0.171","<div style=""font-size:60px;"">+</div>","null","fixation","","","",""
"","2222","name-keyboard-response","349","633368","0.0-3.0-1.171","","","Probe","1087","377","3","66"
"","null","html-keyboard-response","350","634369","0.0-3.0-0.172","<div style=""font-size:60px;"">+</div>","null","fixation","","","",""
"","4743","name-keyboard-response","351","639122","0.0-3.0-1.172","","","Probe","1038","217","1","2"
"","null","html-keyboard-response","352","640135","0.0-3.0-0.173","<div style=""font-size:60px;"">+</div>","null","fixation","","","",""
"","1666","name-keyboard-response","353","641805","0.0-3.0-1.173","","","Probe","1074","477","4","147"
"","null","html-keyboard-response","354","642807","0.0-3.0-0.174","<div style=""font-size:60px;"">+</div>","null","fixation","","","",""
"","2133","name-keyboard-response","355","644945","0.0-3.0-1.174","","","Probe","1050","218","1","23"
"","null","html-keyboard-response","356","645946","0.0-3.0-0.175","<div style=""font-size:60px;"">+</div>","null","fixation","","","",""
"","1907","name-keyboard-response","357","647858","0.0-3.0-1.175","","","Probe","1020","632","6","123"
"","null","html-keyboard-response","358","648860","0.0-3.0-0.176","<div style=""font-size:60px;"">+</div>","null","fixation","","","",""
"","2392","name-keyboard-response","359","651257","0.0-3.0-1.176","","","Probe","1038","226","1","25"
"","null","html-keyboard-response","360","652258","0.0-3.0-0.177","<div style=""font-size:60px;"">+</div>","null","fixation","","","",""
"","1513","name-keyboard-response","361","653775","0.0-3.0-1.177","","","Probe","1037","235","1","10"
"","null","html-keyboard-response","362","654776","0.0-3.0-0.178","<div style=""font-size:60px;"">+</div>","null","fixation","","","",""
"","2494","name-keyboard-response","363","657276","0.0-3.0-1.178","","","Probe","1051","158","0","29"
"","null","html-keyboard-response","364","658278","0.0-3.0-0.179","<div style=""font-size:60px;"">+</div>","null","fixation","","","",""
"","1660","name-keyboard-response","365","659943","0.0-3.0-1.179","","","Probe","1045","472","4","138"
"[{""page_index"":0,""viewing_time"":23447}]","23447","instructions","366","683401","0.0-4.0","","","","","","",""
