"view_history","rt","trial_type","trial_index","time_elapsed","internal_node_id","stimulus","key_press","prac_part","colIndex","allLocX","allLocY","test_part","mainExp_part","condType","xClicked","yClicked","responseCol","responseInd","responseError","correctCol","correctColIndex","probLocIndex"
"[{""page_index"":0,""viewing_time"":917633}]","917634","instructions","0","917634","0.0-0.0","","","","","","","","","","","","","","","","",""
"[{""page_index"":0,""viewing_time"":3792}]","3792","instructions","1","921426","0.0-1.0","","","","","","","","","","","","","","","","",""
"","null","html-keyboard-response","2","922428","0.0-2.0-0.0","<div style=""font-size:60px;"">+</div>","null","fixation","","","","","","","","","","","","","",""
"","null","snap-keyboard-response","3","924431","0.0-2.0-1.0","1","null","","138,91,19","181.26155740732997,-44.990210868773055,114.71528727020922","84.52365234813989,-194.87401295704703,-163.83040885779835","encoding","","","","","","","","","",""
"","null","html-keyboard-response","4","924533","0.0-2.0-2.0","<div style=""font-size:60px;"">+</div>","null","","","","","","delay","","","","","","","","",""
"","null","mask-keyboard-response","5","924537","0.0-2.0-3.0","1","null","","138,91,19","181.26155740732997,-44.990210868773055,114.71528727020922","84.52365234813989,-194.87401295704703,-163.83040885779835","backward_mask","","","","","","","","","",""
"","null","html-keyboard-response","6","926238","0.0-2.0-4.0","<div style=""font-size:60px;"">+</div>","null","","","","","","delay","","","","","","","","",""
"","1451","continuous_report","7","927693","0.0-2.0-5.0","1","","","138,91,19","181.26155740732997,-44.990210868773055,114.71528727020922","84.52365234813989,-194.87401295704703,-163.83040885779835","Probe","","null","876","661","246,66,103","116","-22","228,91,57","138","0"
"[{""page_index"":0,""viewing_time"":2124}]","2124","instructions","8","929817","0.0-3.0","","","","","","","","","","","","","","","","",""
"","null","html-keyboard-response","9","930818","0.0-4.0-0.0","<div style=""font-size:60px;"">+</div>","null","fixation","","","","","","","","","","","","","",""
"","null","snap-keyboard-response","10","930919","0.0-4.0-1.0","1","null","","48,98,29","48.384379119933485,182.70909152852016,-34.72963553338606","-194.05914525519933,81.34732861516002,196.9615506024416","encoding","","","","","","","","","",""
"","null","html-keyboard-response","11","931221","0.0-4.0-2.0","<div style=""font-size:60px;"">+</div>","null","","","","","","delay","","","","","","","","",""
"","null","html-keyboard-response","12","932422","0.0-4.0-3.0","<div style=""font-size:60px;"">+</div>","null","","","","","","delay","","","","","","","","",""
"","836","continuous_report","13","933260","0.0-4.0-4.0","1","","","48,98,29","48.384379119933485,182.70909152852016,-34.72963553338606","-194.05914525519933,81.34732861516002,196.9615506024416","Probe","","null","845","502","166,123,41","166","118","51,132,174","48","0"
"[{""page_index"":0,""viewing_time"":3352}]","3352","instructions","14","936612","0.0-5.0","","","","","","","","","","","","","","","","",""
"[{""page_index"":0,""viewing_time"":1451}]","1451","instructions","15","938063","0.0-6.0","","","","","","","","","","","","","","","","",""
"","null","html-keyboard-response","16","939064","0.0-7.0-0.0","<div style=""font-size:60px;"">+</div>","null","","","","","fixation","","","","","","","","","",""
"","null","snap-keyboard-response","17","939167","0.0-7.0-1.0","1","null","","125,13,45","-74.92131868318246,141.42135623730948,-3.490481287456695","-185.43677091335746,-141.42135623730954,199.96953903127826","encoding","","","","","","","","","",""
"","null","html-keyboard-response","18","939468","0.0-7.0-2.0","<div style=""font-size:60px;"">+</div>","null","","","","","","delay","","","","","","","","",""
"","null","html-keyboard-response","19","940670","0.0-7.0-3.0","<div style=""font-size:60px;"">+</div>","null","","","","","","delay","","","","","","","","",""
"","8574","continuous_report","20","949245","0.0-7.0-4.0","1","","","125,13,45","-74.92131868318246,141.42135623730948,-3.490481287456695","-185.43677091335746,-141.42135623730954,199.96953903127826","Probe","","null","569","369","91,138,100","16","3","99,137,93","13","1"
"","null","html-keyboard-response","21","950247","0.0-7.0-0.1","<div style=""font-size:60px;"">+</div>","null","","","","","fixation","","","","","","","","","",""
"","null","snap-keyboard-response","22","950349","0.0-7.0-1.1","2","null","","152,49,112","90.79809994790932,161.80339887498948,-182.70909152852022","-178.2013048376736,117.55705045849463,-81.34732861515997","encoding","","","","","","","","","",""
"","null","html-keyboard-response","23","950651","0.0-7.0-2.1","<div style=""font-size:60px;"">+</div>","null","","","","","","delay","","","","","","","","",""
"","null","html-keyboard-response","24","951852","0.0-7.0-3.1","<div style=""font-size:60px;"">+</div>","null","","","","","","delay","","","","","","","","",""
"","1993","continuous_report","25","953846","0.0-7.0-4.1","2","","","152,49,112","90.79809994790932,161.80339887498948,-182.70909152852022","-178.2013048376736,117.55705045849463,-81.34732861515997","Probe","","null","633","320","195,111,37","154","2","200,109,38","152","0"
"","null","html-keyboard-response","26","954848","0.0-7.0-0.2","<div style=""font-size:60px;"">+</div>","null","","","","","fixation","","","","","","","","","",""
"","null","snap-keyboard-response","27","954950","0.0-7.0-1.2","3","null","","56,169,135","-193.18516525781365,48.384379119933485,187.9385241571817","51.763809020504205,-194.05914525519933,-68.40402866513371","encoding","","","","","","","","","",""
"","null","html-keyboard-response","28","955252","0.0-7.0-2.2","<div style=""font-size:60px;"">+</div>","null","","","","","","delay","","","","","","","","",""
"","null","html-keyboard-response","29","956453","0.0-7.0-3.2","<div style=""font-size:60px;"">+</div>","null","","","","","","delay","","","","","","","","",""
"","5278","continuous_report","30","961733","0.0-7.0-4.2","3","","","56,169,135","-193.18516525781365,48.384379119933485,187.9385241571817","51.763809020504205,-194.05914525519933,-68.40402866513371","Probe","","null","785","219","245,65,113","112","-23","233,87,63","135","2"
"","null","html-keyboard-response","31","962734","0.0-7.0-0.3","<div style=""font-size:60px;"">+</div>","null","","","","","fixation","","","","","","","","","",""
"","null","snap-keyboard-response","32","962836","0.0-7.0-1.3","4","null","","40,164,141","165.80751451100832,100,-74.92131868318242","111.83858069414939,-173.20508075688772,185.4367709133575","encoding","","","","","","","","","",""
"","null","html-keyboard-response","33","963137","0.0-7.0-2.3","<div style=""font-size:60px;"">+</div>","null","","","","","","delay","","","","","","","","",""
"","null","html-keyboard-response","34","964339","0.0-7.0-3.3","<div style=""font-size:60px;"">+</div>","null","","","","","","delay","","","","","","","","",""
"","5437","continuous_report","35","969778","0.0-7.0-4.3","4","","","40,164,141","165.80751451100832,100,-74.92131868318242","111.83858069414939,-173.20508075688772,185.4367709133575","Probe","","null","879","614","35,134,167","44","4","23,135,159","40","0"
"","null","html-keyboard-response","36","970779","0.0-7.0-0.4","<div style=""font-size:60px;"">+</div>","null","","","","","fixation","","","","","","","","","",""
"","null","snap-keyboard-response","37","970881","0.0-7.0-1.4","","null","","5,160,78","-194.87401295704706,-131.21180579810155,24.37386868102954","44.99021086877295,-150.94191604455435,-198.5092303282644","encoding","","","","","","","","","",""
"","null","html-keyboard-response","38","971182","0.0-7.0-2.4","<div style=""font-size:60px;"">+</div>","null","","","","","","delay","","","","","","","","",""
"","null","html-keyboard-response","39","972384","0.0-7.0-3.4","<div style=""font-size:60px;"">+</div>","null","","","","","","delay","","","","","","","","",""
"","3140","continuous_report","40","975525","0.0-7.0-4.4","","","","5,160,78","-194.87401295704706,-131.21180579810155,24.37386868102954","44.99021086877295,-150.94191604455435,-198.5092303282644","Probe","","null","786","456","101,137,90","12","7","119,135,74","5","0"
"","null","html-keyboard-response","41","976526","0.0-7.0-0.5","<div style=""font-size:60px;"">+</div>","null","","","","","fixation","","","","","","","","","",""
"","null","snap-keyboard-response","42","976627","0.0-7.0-1.5","","null","","47,154,88","-55.127471163399775,-196.96155060244163,-87.6742293578155","-192.2523391876638,34.72963553338605,179.75880925983338","encoding","","","","","","","","","",""
"","null","html-keyboard-response","43","976928","0.0-7.0-2.5","<div style=""font-size:60px;"">+</div>","null","","","","","","delay","","","","","","","","",""
"","null","html-keyboard-response","44","978130","0.0-7.0-3.5","<div style=""font-size:60px;"">+</div>","null","","","","","","delay","","","","","","","","",""
"","4380","continuous_report","45","982511","0.0-7.0-4.5","","","","47,154,88","-55.127471163399775,-196.96155060244163,-87.6742293578155","-192.2523391876638,34.72963553338605,179.75880925983338","Probe","","null","637","490","230,89,59","137","-17","195,111,37","154","1"
"","null","html-keyboard-response","46","983513","0.0-7.0-0.6","<div style=""font-size:60px;"">+</div>","null","","","","","fixation","","","","","","","","","",""
"","null","snap-keyboard-response","47","983615","0.0-7.0-1.6","","null","","89,20,132","198.05361374831406,17.431148549531578,-125.86407820996746","-27.834620192013176,-199.23893961834912,155.42919229139423","encoding","","","","","","","","","",""
"","null","html-keyboard-response","48","983916","0.0-7.0-2.6","<div style=""font-size:60px;"">+</div>","null","","","","","","delay","","","","","","","","",""
"","null","html-keyboard-response","49","985118","0.0-7.0-3.6","<div style=""font-size:60px;"">+</div>","null","","","","","","delay","","","","","","","","",""
"","7751","continuous_report","50","992873","0.0-7.0-4.6","","","","89,20,132","198.05361374831406,17.431148549531578,-125.86407820996746","-27.834620192013176,-199.23893961834912,155.42919229139423","Probe","","null","957","491","237,69,132","104","15","205,87,166","89","0"
"","null","html-keyboard-response","51","993874","0.0-7.0-0.7","<div style=""font-size:60px;"">+</div>","null","","","","","fixation","","","","","","","","","",""
"","null","snap-keyboard-response","52","993977","0.0-7.0-1.7","","null","","81,41,58","108.92780700300544,-131.2118057981015,-198.05361374831406","167.73411358908479,150.94191604455438,-27.834620192013105","encoding","","","","","","","","","",""
"","null","html-keyboard-response","53","994278","0.0-7.0-2.7","<div style=""font-size:60px;"">+</div>","null","","","","","","delay","","","","","","","","",""
"","null","html-keyboard-response","54","995480","0.0-7.0-3.7","<div style=""font-size:60px;"">+</div>","null","","","","","","delay","","","","","","","","",""
"","9664","continuous_report","55","1005145","0.0-7.0-4.7","","","","81,41,58","108.92780700300544,-131.2118057981015,-198.05361374831406","167.73411358908479,150.94191604455438,-27.834620192013105","Probe","","null","814","413","75,138,115","22","-19","25,135,161","41","1"
"","null","html-keyboard-response","56","1006146","0.0-7.0-0.8","<div style=""font-size:60px;"">+</div>","null","","","","","fixation","","","","","","","","","",""
"","null","snap-keyboard-response","57","1006247","0.0-7.0-1.8","","null","","130,50,4","194.87401295704703,-199.23893961834912,17.431148549531624","-44.99021086877307,17.431148549531727,199.23893961834912","encoding","","","","","","","","","",""
"","null","html-keyboard-response","58","1006548","0.0-7.0-2.8","<div style=""font-size:60px;"">+</div>","null","","","","","","delay","","","","","","","","",""
"","null","html-keyboard-response","59","1007750","0.0-7.0-3.8","<div style=""font-size:60px;"">+</div>","null","","","","","","delay","","","","","","","","",""
"","3210","continuous_report","60","1010961","0.0-7.0-4.8","","","","130,50,4","194.87401295704703,-199.23893961834912,17.431148549531624","-44.99021086877307,17.431148549531727,199.23893961834912","Probe","","null","950","360","35,134,167","44","-6","59,130,177","50","1"
"","null","html-keyboard-response","61","1011963","0.0-7.0-0.9","<div style=""font-size:60px;"">+</div>","null","","","","","fixation","","","","","","","","","",""
"","null","snap-keyboard-response","62","1012065","0.0-7.0-1.9","","null","","51,92,33","117.55705045849459,-48.38437911993356,-199.72590695091478","-161.8033988749895,-194.0591452551993,-10.467191248588712","encoding","","","","","","","","","",""
"","null","html-keyboard-response","63","1012367","0.0-7.0-2.9","<div style=""font-size:60px;"">+</div>","null","","","","","","delay","","","","","","","","",""
"","null","html-keyboard-response","64","1013568","0.0-7.0-3.9","<div style=""font-size:60px;"">+</div>","null","","","","","","delay","","","","","","","","",""
"","16798","continuous_report","65","1030367","0.0-7.0-4.9","","","","51,92,33","117.55705045849459,-48.38437911993356,-199.72590695091478","-161.8033988749895,-194.0591452551993,-10.467191248588712","Probe","","null","725","534","39,137,145","34","-17","62,130,178","51","0"
"","null","html-keyboard-response","66","1031369","0.0-7.0-0.10","<div style=""font-size:60px;"">+</div>","null","","","","","fixation","","","","","","","","","",""
"","null","snap-keyboard-response","67","1031472","0.0-7.0-1.10","","null","","77,135,177","84.52365234813989,-27.834620192012988,-196.96155060244163","181.26155740732997,-198.05361374831406,34.72963553338605","encoding","","","","","","","","","",""
"","null","html-keyboard-response","68","1031772","0.0-7.0-2.10","<div style=""font-size:60px;"">+</div>","null","","","","","","delay","","","","","","","","",""
"","null","html-keyboard-response","69","1032974","0.0-7.0-3.10","<div style=""font-size:60px;"">+</div>","null","","","","","","delay","","","","","","","","",""
"","10353","continuous_report","70","1043328","0.0-7.0-4.10","","","","77,135,177","84.52365234813989,-27.834620192012988,-196.96155060244163","181.26155740732997,-198.05361374831406,34.72963553338605","Probe","","null","860","490","176,120,38","162","-15","139,131,58","177","2"
"","null","html-keyboard-response","71","1044330","0.0-7.0-0.11","<div style=""font-size:60px;"">+</div>","null","","","","","fixation","","","","","","","","","",""
"","null","snap-keyboard-response","72","1044432","0.0-7.0-1.11","","null","","26,159,109","-78.14622569785472,-199.72590695091478,17.431148549531578","184.10097069048808,-10.467191248588712,-199.23893961834912","encoding","","","","","","","","","",""
"","null","html-keyboard-response","73","1044733","0.0-7.0-2.11","<div style=""font-size:60px;"">+</div>","null","","","","","","delay","","","","","","","","",""
"","null","html-keyboard-response","74","1045935","0.0-7.0-3.11","<div style=""font-size:60px;"">+</div>","null","","","","","","delay","","","","","","","","",""
"","2204","continuous_report","75","1048142","0.0-7.0-4.11","","","","26,159,109","-78.14622569785472,-199.72590695091478,17.431148549531578","184.10097069048808,-10.467191248588712,-199.23893961834912","Probe","","null","837","519","29,136,152","37","11","64,138,125","26","0"
"","null","html-keyboard-response","76","1049143","0.0-7.0-0.12","<div style=""font-size:60px;"">+</div>","null","","","","","fixation","","","","","","","","","",""
"","null","snap-keyboard-response","77","1049245","0.0-7.0-1.12","","null","","148,127,176","38.16179907530884,-68.40402866513374,182.70909152852016","-196.3254366895328,187.9385241571817,81.34732861516002","encoding","","","","","","","","","",""
"","null","html-keyboard-response","78","1049547","0.0-7.0-2.12","<div style=""font-size:60px;"">+</div>","null","","","","","","delay","","","","","","","","",""
"","null","html-keyboard-response","79","1050748","0.0-7.0-3.12","<div style=""font-size:60px;"">+</div>","null","","","","","","delay","","","","","","","","",""
"","1936","continuous_report","80","1052687","0.0-7.0-4.12","","","","148,127,176","38.16179907530884,-68.40402866513374,182.70909152852016","-196.3254366895328,187.9385241571817,81.34732861516002","Probe","","null","863","498","159,126,45","169","-7","141,131,57","176","2"
"","null","html-keyboard-response","81","1053688","0.0-7.0-0.13","<div style=""font-size:60px;"">+</div>","null","","","","","fixation","","","","","","","","","",""
"","null","snap-keyboard-response","82","1053791","0.0-7.0-1.13","","null","","136,14,71","123.1322950651317,-71.67358990906014,176.5895185717854","-157.60215072134434,-186.71608529944032,93.89431255717817","encoding","","","","","","","","","",""
"","null","html-keyboard-response","83","1054091","0.0-7.0-2.13","<div style=""font-size:60px;"">+</div>","null","","","","","","delay","","","","","","","","",""
"","null","html-keyboard-response","84","1055293","0.0-7.0-3.13","<div style=""font-size:60px;"">+</div>","null","","","","","","delay","","","","","","","","",""
"","1780","continuous_report","85","1057074","0.0-7.0-4.13","","","","136,14,71","123.1322950651317,-71.67358990906014,176.5895185717854","-157.60215072134434,-186.71608529944032,93.89431255717817","Probe","","null","873","497","135,114,189","69","-2","143,111,188","71","2"
"","null","html-keyboard-response","86","1058074","0.0-7.0-0.14","<div style=""font-size:60px;"">+</div>","null","","","","","fixation","","","","","","","","","",""
"","null","snap-keyboard-response","87","1058176","0.0-7.0-1.14","","null","","53,126,22","165.80751451100832,-24.373868681029435,-186.71608529944035","111.83858069414939,-198.5092303282644,71.67358990906004","encoding","","","","","","","","","",""
"","null","html-keyboard-response","88","1058478","0.0-7.0-2.14","<div style=""font-size:60px;"">+</div>","null","","","","","","delay","","","","","","","","",""
"","null","html-keyboard-response","89","1059679","0.0-7.0-3.14","<div style=""font-size:60px;"">+</div>","null","","","","","","delay","","","","","","","","",""
"","4729","continuous_report","90","1064409","0.0-7.0-4.14","","","","53,126,22","165.80751451100832,-24.373868681029435,-186.71608529944035","111.83858069414939,-198.5092303282644,71.67358990906004","Probe","","null","790","547","35,134,167","44","-9","70,128,181","53","0"
"","null","html-keyboard-response","91","1065411","0.0-7.0-0.15","<div style=""font-size:60px;"">+</div>","null","","","","","fixation","","","","","","","","","",""
"","null","snap-keyboard-response","92","1065513","0.0-7.0-1.15","","null","","78,25,101","-81.34732861516002,-199.96953903127826,174.92394142787916","182.7090915285202,3.490481287456687,-96.96192404926737","encoding","","","","","","","","","",""
"","null","html-keyboard-response","93","1065814","0.0-7.0-2.15","<div style=""font-size:60px;"">+</div>","null","","","","","","delay","","","","","","","","",""
"","null","html-keyboard-response","94","1067016","0.0-7.0-3.15","<div style=""font-size:60px;"">+</div>","null","","","","","","delay","","","","","","","","",""
"","1801","continuous_report","95","1068819","0.0-7.0-4.15","","","","78,25,101","-81.34732861516002,-199.96953903127826,174.92394142787916","182.7090915285202,3.490481287456687,-96.96192404926737","Probe","","null","612","473","96,137,95","14","-11","67,138,123","25","1"
"","null","html-keyboard-response","96","1069820","0.0-7.0-0.16","<div style=""font-size:60px;"">+</div>","null","","","","","fixation","","","","","","","","","",""
"","null","snap-keyboard-response","97","1069922","0.0-7.0-1.16","","null","","112,96,1","93.89431255717817,-169.60961923128522,100","176.58951857178536,-105.98385284664096,-173.20508075688772","encoding","","","","","","","","","",""
"","null","html-keyboard-response","98","1070224","0.0-7.0-2.16","<div style=""font-size:60px;"">+</div>","null","","","","","","delay","","","","","","","","",""
"","null","html-keyboard-response","99","1071424","0.0-7.0-3.16","<div style=""font-size:60px;"">+</div>","null","","","","","","delay","","","","","","","","",""
"","6089","continuous_report","100","1077515","0.0-7.0-4.16","","","","112,96,1","93.89431255717817,-169.60961923128522,100","176.58951857178536,-105.98385284664096,-173.20508075688772","Probe","","null","765","382","242,66,123","108","-4","245,65,113","112","0"
"","null","html-keyboard-response","101","1078516","0.0-7.0-0.17","<div style=""font-size:60px;"">+</div>","null","","","","","fixation","","","","","","","","","",""
"","null","snap-keyboard-response","102","1078618","0.0-7.0-1.17","","null","","54,118,26","58.47434094454735,-176.58951857178536,198.90437907365467","191.26095119260708,93.89431255717821,20.905692653530693","encoding","","","","","","","","","",""
"","null","html-keyboard-response","103","1078920","0.0-7.0-2.17","<div style=""font-size:60px;"">+</div>","null","","","","","","delay","","","","","","","","",""
"","null","html-keyboard-response","104","1080121","0.0-7.0-3.17","<div style=""font-size:60px;"">+</div>","null","","","","","","delay","","","","","","","","",""
"","10801","continuous_report","105","1090925","0.0-7.0-4.17","","","","54,118,26","58.47434094454735,-176.58951857178536,198.90437907365467","191.26095119260708,93.89431255717821,20.905692653530693","Probe","","null","737","414","62,130,178","51","-3","74,128,182","54","0"
"","null","html-keyboard-response","106","1091926","0.0-7.0-0.18","<div style=""font-size:60px;"">+</div>","null","","","","","fixation","","","","","","","","","",""
"","null","snap-keyboard-response","107","1092030","0.0-7.0-1.18","","null","","55,137,97","-68.40402866513386,117.55705045849459,199.72590695091478","-187.93852415718163,-161.8033988749895,-10.467191248588874","encoding","","","","","","","","","",""
"","null","html-keyboard-response","108","1092331","0.0-7.0-2.18","<div style=""font-size:60px;"">+</div>","null","","","","","","delay","","","","","","","","",""
"","null","html-keyboard-response","109","1093533","0.0-7.0-3.18","<div style=""font-size:60px;"">+</div>","null","","","","","","delay","","","","","","","","",""
"","1643","continuous_report","110","1095177","0.0-7.0-4.18","","","","55,137,97","-68.40402866513386,117.55705045849459,199.72590695091478","-187.93852415718163,-161.8033988749895,-10.467191248588874","Probe","","null","982","217","226,92,56","139","2","230,89,59","137","1"
"","null","html-keyboard-response","111","1096179","0.0-7.0-0.19","<div style=""font-size:60px;"">+</div>","null","","","","","fixation","","","","","","","","","",""
"","null","snap-keyboard-response","112","1096280","0.0-7.0-1.19","","null","","154,86,175","161.80339887498948,-6.979899340500328,-90.79809994790935","117.55705045849463,-199.87816540381914,178.20130483767358","encoding","","","","","","","","","",""
"","null","html-keyboard-response","113","1096582","0.0-7.0-2.19","<div style=""font-size:60px;"">+</div>","null","","","","","","delay","","","","","","","","",""
"","null","html-keyboard-response","114","1097783","0.0-7.0-3.19","<div style=""font-size:60px;"">+</div>","null","","","","","","delay","","","","","","","","",""
"","15145","continuous_report","115","1112929","0.0-7.0-4.19","","","","154,86,175","161.80339887498948,-6.979899340500328,-90.79809994790935","117.55705045849463,-199.87816540381914,178.20130483767358","Probe","","null","875","449","121,135,72","4","-171","144,130,55","175","2"
"","null","html-keyboard-response","116","1113930","0.0-7.0-0.20","<div style=""font-size:60px;"">+</div>","null","","","","","fixation","","","","","","","","","",""
"","null","snap-keyboard-response","117","1114033","0.0-7.0-1.20","","null","","54,78,147","165.8075145110083,133.82612127177168,-71.67358990906014","-111.83858069414947,148.62896509547883,-186.71608529944032","encoding","","","","","","","","","",""
"","null","html-keyboard-response","118","1114334","0.0-7.0-2.20","<div style=""font-size:60px;"">+</div>","null","","","","","","delay","","","","","","","","",""
"","null","html-keyboard-response","119","1115536","0.0-7.0-3.20","<div style=""font-size:60px;"">+</div>","null","","","","","","delay","","","","","","","","",""
"","4546","continuous_report","120","1120084","0.0-7.0-4.20","","","","54,78,147","165.8075145110083,133.82612127177168,-71.67358990906014","-111.83858069414947,148.62896509547883,-186.71608529944032","Probe","","null","787","348","166,104,184","77","-1","170,102,183","78","1"
"","null","html-keyboard-response","121","1121085","0.0-7.0-0.21","<div style=""font-size:60px;"">+</div>","null","","","","","fixation","","","","","","","","","",""
"","null","snap-keyboard-response","122","1121188","0.0-7.0-1.21","","null","","166,136,65","-196.96155060244163,-74.92131868318242,87.67422935781548","34.72963553338605,185.4367709133575,-179.7588092598334","encoding","","","","","","","","","",""
"","null","html-keyboard-response","123","1121489","0.0-7.0-2.21","<div style=""font-size:60px;"">+</div>","null","","","","","","delay","","","","","","","","",""
"","null","html-keyboard-response","124","1122690","0.0-7.0-3.21","<div style=""font-size:60px;"">+</div>","null","","","","","","delay","","","","","","","","",""
"","14211","continuous_report","125","1136903","0.0-7.0-4.21","","","","166,136,65","-196.96155060244163,-74.92131868318242,87.67422935781548","34.72963553338605,185.4367709133575,-179.7588092598334","Probe","","null","866","416","146,129,53","174","8","166,123,41","166","0"
"","null","html-keyboard-response","126","1137904","0.0-7.0-0.22","<div style=""font-size:60px;"">+</div>","null","","","","","fixation","","","","","","","","","",""
"","null","snap-keyboard-response","127","1138006","0.0-7.0-1.22","","null","","131,110,163","138.93167409179947,17.431148549531578,-167.73411358908484","143.86796006773022,-199.23893961834912,108.92780700300537","encoding","","","","","","","","","",""
"","null","html-keyboard-response","128","1138307","0.0-7.0-2.22","<div style=""font-size:60px;"">+</div>","null","","","","","","delay","","","","","","","","",""
"","null","html-keyboard-response","129","1139508","0.0-7.0-3.22","<div style=""font-size:60px;"">+</div>","null","","","","","","delay","","","","","","","","",""
"","6100","continuous_report","130","1145610","0.0-7.0-4.22","","","","131,110,163","138.93167409179947,17.431148549531578,-167.73411358908484","143.86796006773022,-199.23893961834912,108.92780700300537","Probe","","null","691","458","166,123,41","166","3","173,121,38","163","2"
"","null","html-keyboard-response","131","1146612","0.0-7.0-0.23","<div style=""font-size:60px;"">+</div>","null","","","","","fixation","","","","","","","","","",""
"","null","snap-keyboard-response","132","1146713","0.0-7.0-1.23","","null","","101,126,4","-120.36300463040968,44.990210868772984,143.86796006773017","159.72710200945858,194.87401295704706,-138.93167409179952","encoding","","","","","","","","","",""
"","null","html-keyboard-response","133","1147013","0.0-7.0-2.23","<div style=""font-size:60px;"">+</div>","null","","","","","","delay","","","","","","","","",""
"","null","html-keyboard-response","134","1148214","0.0-7.0-3.23","<div style=""font-size:60px;"">+</div>","null","","","","","","delay","","","","","","","","",""
"","2164","continuous_report","135","1150379","0.0-7.0-4.23","","","","101,126,4","-120.36300463040968,44.990210868772984,143.86796006773017","159.72710200945858,194.87401295704706,-138.93167409179952","Probe","","null","633","404","155,108,186","74","-27","233,72,140","101","0"
"","null","html-keyboard-response","136","1151381","0.0-7.0-0.24","<div style=""font-size:60px;"">+</div>","null","","","","","fixation","","","","","","","","","",""
"","null","snap-keyboard-response","137","1151483","0.0-7.0-1.24","","null","","31,156,48","-196.3254366895328,111.83858069414939,100","38.16179907530899,165.80751451100832,-173.20508075688772","encoding","","","","","","","","","",""
"","null","html-keyboard-response","138","1151785","0.0-7.0-2.24","<div style=""font-size:60px;"">+</div>","null","","","","","","delay","","","","","","","","",""
"","null","html-keyboard-response","139","1152986","0.0-7.0-3.24","<div style=""font-size:60px;"">+</div>","null","","","","","","delay","","","","","","","","",""
"","4434","continuous_report","140","1157422","0.0-7.0-4.24","","","","31,156,48","-196.3254366895328,111.83858069414939,100","38.16179907530899,165.80751451100832,-173.20508075688772","Probe","","null","745","395","159,126,45","169","13","190,114,36","156","1"
"","null","html-keyboard-response","141","1158423","0.0-7.0-0.25","<div style=""font-size:60px;"">+</div>","null","","","","","fixation","","","","","","","","","",""
"","null","snap-keyboard-response","142","1158525","0.0-7.0-1.25","","null","","100,80,60","74.92131868318239,159.72710200945858,195.62952014676114","185.4367709133575,-120.36300463040965,41.58233816355186","encoding","","","","","","","","","",""
"","null","html-keyboard-response","143","1158826","0.0-7.0-2.25","<div style=""font-size:60px;"">+</div>","null","","","","","","delay","","","","","","","","",""
"","null","html-keyboard-response","144","1160028","0.0-7.0-3.25","<div style=""font-size:60px;"">+</div>","null","","","","","","delay","","","","","","","","",""
"","5525","continuous_report","145","1165555","0.0-7.0-4.25","","","","100,80,60","74.92131868318239,159.72710200945858,195.62952014676114","185.4367709133575,-120.36300463040965,41.58233816355186","Probe","","null","885","563","59,130,177","50","-10","99,123,187","60","2"
"","null","html-keyboard-response","146","1166556","0.0-7.0-0.26","<div style=""font-size:60px;"">+</div>","null","","","","","fixation","","","","","","","","","",""
"","null","snap-keyboard-response","147","1166658","0.0-7.0-1.26","","null","","56,109,162","163.83040885779832,-150.9419160445544,155.42919229139417","-114.71528727020927,131.21180579810147,125.86407820996747","encoding","","","","","","","","","",""
"","null","html-keyboard-response","148","1166960","0.0-7.0-2.26","<div style=""font-size:60px;"">+</div>","null","","","","","","delay","","","","","","","","",""
"","null","html-keyboard-response","149","1168161","0.0-7.0-3.26","<div style=""font-size:60px;"">+</div>","null","","","","","","delay","","","","","","","","",""
"","2624","continuous_report","150","1170786","0.0-7.0-4.26","","","","56,109,162","163.83040885779832,-150.9419160445544,155.42919229139417","-114.71528727020927,131.21180579810147,125.86407820996747","Probe","","null","856","215","66,129,179","52","-4","83,126,184","56","0"
"","null","html-keyboard-response","151","1171788","0.0-7.0-0.27","<div style=""font-size:60px;"">+</div>","null","","","","","fixation","","","","","","","","","",""
"","null","snap-keyboard-response","152","1171890","0.0-7.0-1.27","","null","","41,2,125","-199.72590695091478,81.34732861516002,-125.86407820996746","10.467191248588762,182.70909152852016,155.42919229139423","encoding","","","","","","","","","",""
"","null","html-keyboard-response","153","1172191","0.0-7.0-2.27","<div style=""font-size:60px;"">+</div>","null","","","","","","delay","","","","","","","","",""
"","null","html-keyboard-response","154","1173393","0.0-7.0-3.27","<div style=""font-size:60px;"">+</div>","null","","","","","","delay","","","","","","","","",""
"","1713","continuous_report","155","1175107","0.0-7.0-4.27","","","","41,2,125","-199.72590695091478,81.34732861516002,-125.86407820996746","10.467191248588762,182.70909152852016,155.42919229139423","Probe","","null","690","497","242,66,123","108","-17","244,74,83","125","2"
"","null","html-keyboard-response","156","1176108","0.0-7.0-0.28","<div style=""font-size:60px;"">+</div>","null","","","","","fixation","","","","","","","","","",""
"","null","snap-keyboard-response","157","1176210","0.0-7.0-1.28","","null","","146,56,77","198.05361374831406,-199.23893961834912,-78.14622569785472","-27.834620192013176,-17.43114854953159,184.10097069048808","encoding","","","","","","","","","",""
"","null","html-keyboard-response","158","1176511","0.0-7.0-2.28","<div style=""font-size:60px;"">+</div>","null","","","","","","delay","","","","","","","","",""
"","null","html-keyboard-response","159","1177714","0.0-7.0-3.28","<div style=""font-size:60px;"">+</div>","null","","","","","","delay","","","","","","","","",""
"","4613","continuous_report","160","1182329","0.0-7.0-4.28","","","","146,56,77","198.05361374831406,-199.23893961834912,-78.14622569785472","-27.834620192013176,-17.43114854953159,184.10097069048808","Probe","","null","631","512","127,116,189","67","-10","166,104,184","77","2"
"","null","html-keyboard-response","161","1183330","0.0-7.0-0.29","<div style=""font-size:60px;"">+</div>","null","","","","","fixation","","","","","","","","","",""
"","null","snap-keyboard-response","162","1183432","0.0-7.0-1.29","","null","","164,74,38","44.990210868772984,178.20130483767358,-199.87816540381914","194.87401295704706,90.79809994790935,6.97989934050014","encoding","","","","","","","","","",""
"","null","html-keyboard-response","163","1183734","0.0-7.0-2.29","<div style=""font-size:60px;"">+</div>","null","","","","","","delay","","","","","","","","",""
"","null","html-keyboard-response","164","1184935","0.0-7.0-3.29","<div style=""font-size:60px;"">+</div>","null","","","","","","delay","","","","","","","","",""
"","5512","continuous_report","165","1190451","0.0-7.0-4.29","","","","164,74,38","44.990210868772984,178.20130483767358,-199.87816540381914","194.87401295704706,90.79809994790935,6.97989934050014","Probe","","null","807","438","46,137,140","32","-6","26,136,154","38","2"
"","null","html-keyboard-response","166","1191453","0.0-7.0-0.30","<div style=""font-size:60px;"">+</div>","null","","","","","fixation","","","","","","","","","",""
"","null","snap-keyboard-response","167","1191555","0.0-7.0-1.30","","null","","145,166,80","-120.36300463040968,41.58233816355171,111.83858069414939","159.72710200945858,-195.62952014676117,165.80751451100832","encoding","","","","","","","","","",""
"","null","html-keyboard-response","168","1191856","0.0-7.0-2.30","<div style=""font-size:60px;"">+</div>","null","","","","","","delay","","","","","","","","",""
"","null","html-keyboard-response","169","1193058","0.0-7.0-3.30","<div style=""font-size:60px;"">+</div>","null","","","","","","delay","","","","","","","","",""
"","4681","continuous_report","170","1197741","0.0-7.0-4.30","","","","145,166,80","-120.36300463040968,41.58233816355171,111.83858069414939","159.72710200945858,-195.62952014676117,165.80751451100832","Probe","","null","829","555","158,106,185","75","-5","177,100,180","80","2"
"","null","html-keyboard-response","171","1198742","0.0-7.0-0.31","<div style=""font-size:60px;"">+</div>","null","","","","","fixation","","","","","","","","","",""
"","null","snap-keyboard-response","172","1198844","0.0-7.0-1.31","","null","","70,116,153","-87.6742293578155,61.80339887498945,71.67358990906007","179.75880925983338,-190.21130325903073,186.71608529944035","encoding","","","","","","","","","",""
"","null","html-keyboard-response","173","1199145","0.0-7.0-2.31","<div style=""font-size:60px;"">+</div>","null","","","","","","delay","","","","","","","","",""
"","null","html-keyboard-response","174","1200347","0.0-7.0-3.31","<div style=""font-size:60px;"">+</div>","null","","","","","","delay","","","","","","","","",""
"","4727","continuous_report","175","1205075","0.0-7.0-4.31","","","","70,116,153","-87.6742293578155,61.80339887498945,71.67358990906007","179.75880925983338,-190.21130325903073,186.71608529944035","Probe","","null","691","484","245,65,113","112","-4","246,66,103","116","1"
"","null","html-keyboard-response","176","1206077","0.0-7.0-0.32","<div style=""font-size:60px;"">+</div>","null","","","","","fixation","","","","","","","","","",""
"","null","snap-keyboard-response","177","1206179","0.0-7.0-1.32","","null","","27,54,101","-55.12747116339981,-178.20130483767363,161.80339887498948","192.25233918766378,-90.79809994790926,117.55705045849463","encoding","","","","","","","","","",""
"","null","html-keyboard-response","178","1206481","0.0-7.0-2.32","<div style=""font-size:60px;"">+</div>","null","","","","","","delay","","","","","","","","",""
"","null","html-keyboard-response","179","1207682","0.0-7.0-3.32","<div style=""font-size:60px;"">+</div>","null","","","","","","delay","","","","","","","","",""
"","8562","continuous_report","180","1216247","0.0-7.0-4.32","","","","27,54,101","-55.12747116339981,-178.20130483767363,161.80339887498948","192.25233918766378,-90.79809994790926,117.55705045849463","Probe","","null","794","436","62,130,178","51","-3","74,128,182","54","1"
"","null","html-keyboard-response","181","1217249","0.0-7.0-0.33","<div style=""font-size:60px;"">+</div>","null","","","","","fixation","","","","","","","","","",""
"","null","snap-keyboard-response","182","1217351","0.0-7.0-1.33","","null","","115,159,38","-48.384379119933556,157.6021507213444,105.98385284664093","194.0591452551993,123.13229506513164,-169.60961923128522","encoding","","","","","","","","","",""
"","null","html-keyboard-response","183","1217652","0.0-7.0-2.33","<div style=""font-size:60px;"">+</div>","null","","","","","","delay","","","","","","","","",""
"","null","html-keyboard-response","184","1218854","0.0-7.0-3.33","<div style=""font-size:60px;"">+</div>","null","","","","","","delay","","","","","","","","",""
"","3691","continuous_report","185","1222546","0.0-7.0-4.33","","","","115,159,38","-48.384379119933556,157.6021507213444,105.98385284664093","194.0591452551993,123.13229506513164,-169.60961923128522","Probe","","null","826","478","193,93,173","85","-30","246,66,106","115","0"
"","null","html-keyboard-response","186","1223547","0.0-7.0-0.34","<div style=""font-size:60px;"">+</div>","null","","","","","fixation","","","","","","","","","",""
"","null","snap-keyboard-response","187","1223650","0.0-7.0-1.34","","null","","170,113,37","-199.51281005196486,150.94191604455438,-74.92131868318242","-13.951294748824965,-131.21180579810147,185.4367709133575","encoding","","","","","","","","","",""
"","null","html-keyboard-response","188","1223951","0.0-7.0-2.34","<div style=""font-size:60px;"">+</div>","null","","","","","","delay","","","","","","","","",""
"","null","html-keyboard-response","189","1225153","0.0-7.0-3.34","<div style=""font-size:60px;"">+</div>","null","","","","","","delay","","","","","","","","",""
"","1948","continuous_report","190","1227103","0.0-7.0-4.34","","","","170,113,37","-199.51281005196486,150.94191604455438,-74.92131868318242","-13.951294748824965,-131.21180579810147,185.4367709133575","Probe","","null","724","361","35,134,167","44","7","29,136,152","37","2"
"","null","html-keyboard-response","191","1228105","0.0-7.0-0.35","<div style=""font-size:60px;"">+</div>","null","","","","","fixation","","","","","","","","","",""
"","null","snap-keyboard-response","192","1228207","0.0-7.0-1.35","","null","","47,13,88","-190.2113032590307,-117.55705045849464,195.62952014676114","61.803398874989504,-161.80339887498945,41.58233816355186","encoding","","","","","","","","","",""
"","null","html-keyboard-response","193","1228507","0.0-7.0-2.35","<div style=""font-size:60px;"">+</div>","null","","","","","","delay","","","","","","","","",""
"","null","html-keyboard-response","194","1229709","0.0-7.0-3.35","<div style=""font-size:60px;"">+</div>","null","","","","","","delay","","","","","","","","",""
"","2849","continuous_report","195","1232559","0.0-7.0-4.35","","","","47,13,88","-190.2113032590307,-117.55705045849464,195.62952014676114","61.803398874989504,-161.80339887498945,41.58233816355186","Probe","","null","906","464","223,77,151","96","8","202,88,168","88","2"
"","null","html-keyboard-response","196","1233561","0.0-7.0-0.36","<div style=""font-size:60px;"">+</div>","null","","","","","fixation","","","","","","","","","",""
"","null","snap-keyboard-response","197","1233663","0.0-7.0-1.36","","null","","60,178,20","-38.16179907530896,-114.71528727020927,-186.71608529944035","196.3254366895328,-163.83040885779832,71.67358990906004","encoding","","","","","","","","","",""
"","null","html-keyboard-response","198","1233964","0.0-7.0-2.36","<div style=""font-size:60px;"">+</div>","null","","","","","","delay","","","","","","","","",""
"","null","html-keyboard-response","199","1235165","0.0-7.0-3.36","<div style=""font-size:60px;"">+</div>","null","","","","","","delay","","","","","","","","",""
"","8799","continuous_report","200","1243966","0.0-7.0-4.36","","","","60,178,20","-38.16179907530896,-114.71528727020927,-186.71608529944035","196.3254366895328,-163.83040885779832,71.67358990906004","Probe","","null","807","354","149,129,51","173","153","81,138,110","20","2"
"","null","html-keyboard-response","201","1244967","0.0-7.0-0.37","<div style=""font-size:60px;"">+</div>","null","","","","","fixation","","","","","","","","","",""
"","null","snap-keyboard-response","202","1245069","0.0-7.0-1.37","","null","","99,118,173","-3.490481287456695,159.72710200945858,178.20130483767355","199.96953903127826,120.36300463040965,-90.79809994790939","encoding","","","","","","","","","",""
"","null","html-keyboard-response","203","1245371","0.0-7.0-2.37","<div style=""font-size:60px;"">+</div>","null","","","","","","delay","","","","","","","","",""
"","null","html-keyboard-response","204","1246572","0.0-7.0-3.37","<div style=""font-size:60px;"">+</div>","null","","","","","","delay","","","","","","","","",""
"","5470","continuous_report","205","1252043","0.0-7.0-4.37","","","","99,118,173","-3.490481287456695,159.72710200945858,178.20130483767355","199.96953903127826,120.36300463040965,-90.79809994790939","Probe","","null","776","351","231,73,142","100","-18","246,67,98","118","1"
"","null","html-keyboard-response","206","1253044","0.0-7.0-0.38","<div style=""font-size:60px;"">+</div>","null","","","","","fixation","","","","","","","","","",""
"","null","snap-keyboard-response","207","1253147","0.0-7.0-1.38","","null","","91,117,0","-27.834620192012988,-163.8304088577984,165.8075145110083","-198.05361374831406,-114.71528727020916,-111.83858069414947","encoding","","","","","","","","","",""
"","null","html-keyboard-response","208","1253448","0.0-7.0-2.38","<div style=""font-size:60px;"">+</div>","null","","","","","","delay","","","","","","","","",""
"","null","html-keyboard-response","209","1254650","0.0-7.0-3.38","<div style=""font-size:60px;"">+</div>","null","","","","","","delay","","","","","","","","",""
"","4129","continuous_report","210","1258782","0.0-7.0-4.38","","","","91,117,0","-27.834620192012988,-163.8304088577984,165.8075145110083","-198.05361374831406,-114.71528727020916,-111.83858069414947","Probe","","null","884","473","109,136,83","9","9","131,133,64","0","2"
"","null","html-keyboard-response","211","1259784","0.0-7.0-0.39","<div style=""font-size:60px;"">+</div>","null","","","","","fixation","","","","","","","","","",""
"","null","snap-keyboard-response","212","1259886","0.0-7.0-1.39","","null","","120,169,95","-165.80751451100832,13.951294748825044,-185.4367709133575","111.83858069414939,-199.51281005196486,-74.9213186831824","encoding","","","","","","","","","",""
"","null","html-keyboard-response","213","1260187","0.0-7.0-2.39","<div style=""font-size:60px;"">+</div>","null","","","","","","delay","","","","","","","","",""
"","null","html-keyboard-response","214","1261388","0.0-7.0-3.39","<div style=""font-size:60px;"">+</div>","null","","","","","","delay","","","","","","","","",""
"","11173","continuous_report","215","1272563","0.0-7.0-4.39","","","","120,169,95","-165.80751451100832,13.951294748825044,-185.4367709133575","111.83858069414939,-199.51281005196486,-74.9213186831824","Probe","","null","800","422","52,138,135","30","-139","159,126,45","169","1"
"","null","html-keyboard-response","216","1273564","0.0-7.0-0.40","<div style=""font-size:60px;"">+</div>","null","","","","","fixation","","","","","","","","","",""
"","null","snap-keyboard-response","217","1273666","0.0-7.0-1.40","","null","","90,73,38","153.2088886237956,-51.76380902050417,-123.13229506513164","-128.5575219373079,193.18516525781365,-157.6021507213444","encoding","","","","","","","","","",""
"","null","html-keyboard-response","218","1273968","0.0-7.0-2.40","<div style=""font-size:60px;"">+</div>","null","","","","","","delay","","","","","","","","",""
"","null","html-keyboard-response","219","1275169","0.0-7.0-3.40","<div style=""font-size:60px;"">+</div>","null","","","","","","delay","","","","","","","","",""
"","4096","continuous_report","220","1279267","0.0-7.0-4.40","","","","90,73,38","153.2088886237956,-51.76380902050417,-123.13229506513164","-128.5575219373079,193.18516525781365,-157.6021507213444","Probe","","null","736","412","243,66,120","109","19","208,86,164","90","0"
"","null","html-keyboard-response","221","1280269","0.0-7.0-0.41","<div style=""font-size:60px;"">+</div>","null","","","","","fixation","","","","","","","","","",""
"","null","snap-keyboard-response","222","1280371","0.0-7.0-1.41","","null","","81,16,100","-48.384379119933556,-153.20888862379562,148.62896509547886","194.0591452551993,-128.55752193730785,-133.82612127177163","encoding","","","","","","","","","",""
"","null","html-keyboard-response","223","1280672","0.0-7.0-2.41","<div style=""font-size:60px;"">+</div>","null","","","","","","delay","","","","","","","","",""
"","null","html-keyboard-response","224","1281873","0.0-7.0-3.41","<div style=""font-size:60px;"">+</div>","null","","","","","","delay","","","","","","","","",""
"","7630","continuous_report","225","1289505","0.0-7.0-4.41","","","","81,16,100","-48.384379119933556,-153.20888862379562,148.62896509547886","194.0591452551993,-128.55752193730785,-133.82612127177163","Probe","","null","807","435","55,131,175","49","33","91,138,100","16","1"
"","null","html-keyboard-response","226","1290506","0.0-7.0-0.42","<div style=""font-size:60px;"">+</div>","null","","","","","fixation","","","","","","","","","",""
"","null","snap-keyboard-response","227","1290608","0.0-7.0-1.42","","null","","79,124,21","-108.9278070030054,74.92131868318239,198.5092303282644","-167.7341135890848,-185.4367709133575,24.373868681029496","encoding","","","","","","","","","",""
"","null","html-keyboard-response","228","1290909","0.0-7.0-2.42","<div style=""font-size:60px;"">+</div>","null","","","","","","delay","","","","","","","","",""
"","null","html-keyboard-response","229","1292111","0.0-7.0-3.42","<div style=""font-size:60px;"">+</div>","null","","","","","","delay","","","","","","","","",""
"","10521","continuous_report","230","1302633","0.0-7.0-4.42","","","","79,124,21","-108.9278070030054,74.92131868318239,198.5092303282644","-167.7341135890848,-185.4367709133575,24.373868681029496","Probe","","null","799","466","83,138,108","19","-2","78,138,113","21","2"
"","null","html-keyboard-response","231","1303635","0.0-7.0-0.43","<div style=""font-size:60px;"">+</div>","null","","","","","fixation","","","","","","","","","",""
"","null","snap-keyboard-response","232","1303737","0.0-7.0-1.43","","null","","45,167,145","-24.373868681029435,123.13229506513166,-193.18516525781368","-198.5092303282644,157.60215072134437,-51.76380902050407","encoding","","","","","","","","","",""
"","null","html-keyboard-response","233","1304038","0.0-7.0-2.43","<div style=""font-size:60px;"">+</div>","null","","","","","","delay","","","","","","","","",""
"","null","html-keyboard-response","234","1305239","0.0-7.0-3.43","<div style=""font-size:60px;"">+</div>","null","","","","","","delay","","","","","","","","",""
"","3041","continuous_report","235","1308282","0.0-7.0-4.43","","","","45,167,145","-24.373868681029435,123.13229506513166,-193.18516525781368","-198.5092303282644,157.60215072134437,-51.76380902050407","Probe","","null","662","427","183,117,36","159","-8","164,124,43","167","1"
"","null","html-keyboard-response","236","1309282","0.0-7.0-0.44","<div style=""font-size:60px;"">+</div>","null","","","","","fixation","","","","","","","","","",""
"","null","snap-keyboard-response","237","1309384","0.0-7.0-1.44","","null","","164,129,112","184.100970690488,100.00000000000003,-186.71608529944032","-78.14622569785493,173.20508075688772,-71.67358990906008","encoding","","","","","","","","","",""
"","null","html-keyboard-response","238","1309685","0.0-7.0-2.44","<div style=""font-size:60px;"">+</div>","null","","","","","","delay","","","","","","","","",""
"","null","html-keyboard-response","239","1310887","0.0-7.0-3.44","<div style=""font-size:60px;"">+</div>","null","","","","","","delay","","","","","","","","",""
"","11904","continuous_report","240","1322792","0.0-7.0-4.44","","","","164,129,112","184.100970690488,100.00000000000003,-186.71608529944032","-78.14622569785493,173.20508075688772,-71.67358990906008","Probe","","null","622","345","188,115,36","157","-7","171,122,39","164","0"
"","null","html-keyboard-response","241","1323794","0.0-7.0-0.45","<div style=""font-size:60px;"">+</div>","null","","","","","fixation","","","","","","","","","",""
"","null","snap-keyboard-response","242","1323896","0.0-7.0-1.45","","null","","0,44,88","90.79809994790932,-87.6742293578155,161.80339887498948","-178.2013048376736,179.75880925983338,117.55705045849463","encoding","","","","","","","","","",""
"","null","html-keyboard-response","243","1324198","0.0-7.0-2.45","<div style=""font-size:60px;"">+</div>","null","","","","","","delay","","","","","","","","",""
"","null","html-keyboard-response","244","1325399","0.0-7.0-3.45","<div style=""font-size:60px;"">+</div>","null","","","","","","delay","","","","","","","","",""
"","2555","continuous_report","245","1327956","0.0-7.0-4.45","","","","0,44,88","90.79809994790932,-87.6742293578155,161.80339887498948","-178.2013048376736,179.75880925983338,117.55705045849463","Probe","","null","881","506","47,132,172","47","3","35,134,167","44","1"
"","null","html-keyboard-response","246","1328958","0.0-7.0-0.46","<div style=""font-size:60px;"">+</div>","null","","","","","fixation","","","","","","","","","",""
"","null","snap-keyboard-response","247","1329059","0.0-7.0-1.46","","null","","168,34,91","-181.26155740733,141.42135623730948,-155.42919229139414","-84.52365234813985,-141.42135623730954,125.86407820996754","encoding","","","","","","","","","",""
"","null","html-keyboard-response","248","1329360","0.0-7.0-2.46","<div style=""font-size:60px;"">+</div>","null","","","","","","delay","","","","","","","","",""
"","null","html-keyboard-response","249","1330562","0.0-7.0-3.46","<div style=""font-size:60px;"">+</div>","null","","","","","","delay","","","","","","","","",""
"","10217","continuous_report","250","1340781","0.0-7.0-4.46","","","","168,34,91","-181.26155740733,141.42135623730948,-155.42919229139414","-84.52365234813985,-141.42135623730954,125.86407820996754","Probe","","null","801","428","70,128,181","53","19","39,137,145","34","1"
"","null","html-keyboard-response","251","1341781","0.0-7.0-0.47","<div style=""font-size:60px;"">+</div>","null","","","","","fixation","","","","","","","","","",""
"","null","snap-keyboard-response","252","1341884","0.0-7.0-1.47","","null","","6,105,44","-96.9619240492674,71.67358990905991,-176.58951857178536","174.92394142787916,-186.7160852994404,-93.89431255717817","encoding","","","","","","","","","",""
"","null","html-keyboard-response","253","1342185","0.0-7.0-2.47","<div style=""font-size:60px;"">+</div>","null","","","","","","delay","","","","","","","","",""
"","null","html-keyboard-response","254","1343387","0.0-7.0-3.47","<div style=""font-size:60px;"">+</div>","null","","","","","","delay","","","","","","","","",""
"","3310","continuous_report","255","1346698","0.0-7.0-4.47","","","","6,105,44","-96.9619240492674,71.67358990905991,-176.58951857178536","174.92394142787916,-186.7160852994404,-93.89431255717817","Probe","","null","683","370","221,79,154","95","-10","239,68,130","105","1"
"","null","html-keyboard-response","256","1347700","0.0-7.0-0.48","<div style=""font-size:60px;"">+</div>","null","","","","","fixation","","","","","","","","","",""
"","null","snap-keyboard-response","257","1347803","0.0-7.0-1.48","","null","","107,78,35","131.21180579810147,189.1037151198633,10.467191248588788","150.94191604455438,-65.11363089143151,-199.72590695091478","encoding","","","","","","","","","",""
"","null","html-keyboard-response","258","1348104","0.0-7.0-2.48","<div style=""font-size:60px;"">+</div>","null","","","","","","delay","","","","","","","","",""
"","null","html-keyboard-response","259","1349306","0.0-7.0-3.48","<div style=""font-size:60px;"">+</div>","null","","","","","","delay","","","","","","","","",""
"","9270","continuous_report","260","1358578","0.0-7.0-4.48","","","","107,78,35","131.21180579810147,189.1037151198633,10.467191248588788","150.94191604455438,-65.11363089143151,-199.72590695091478","Probe","","null","757","398","151,109,187","73","-5","170,102,183","78","1"
"","null","html-keyboard-response","261","1359579","0.0-7.0-0.49","<div style=""font-size:60px;"">+</div>","null","","","","","fixation","","","","","","","","","",""
"","null","snap-keyboard-response","262","1359682","0.0-7.0-1.49","","null","","174,41,74","-38.16179907530909,163.83040885779835,34.72963553338608","-196.32543668953278,114.71528727020922,196.9615506024416","encoding","","","","","","","","","",""
"","null","html-keyboard-response","263","1359983","0.0-7.0-2.49","<div style=""font-size:60px;"">+</div>","null","","","","","","delay","","","","","","","","",""
"","null","html-keyboard-response","264","1361185","0.0-7.0-3.49","<div style=""font-size:60px;"">+</div>","null","","","","","","delay","","","","","","","","",""
"","2475","continuous_report","265","1363663","0.0-7.0-4.49","","","","174,41,74","-38.16179907530909,163.83040885779835,34.72963553338608","-196.32543668953278,114.71528727020922,196.9615506024416","Probe","","null","947","419","173,121,38","163","-11","146,129,53","174","0"
"","null","html-keyboard-response","266","1364664","0.0-7.0-0.50","<div style=""font-size:60px;"">+</div>","null","","","","","fixation","","","","","","","","","",""
"","null","snap-keyboard-response","267","1364767","0.0-7.0-1.50","","null","","109,148,43","189.10371511986338,-176.58951857178536,123.1322950651317","65.11363089143133,93.89431255717821,-157.60215072134434","encoding","","","","","","","","","",""
"","null","html-keyboard-response","268","1365068","0.0-7.0-2.50","<div style=""font-size:60px;"">+</div>","null","","","","","","delay","","","","","","","","",""
"","null","html-keyboard-response","269","1366270","0.0-7.0-3.50","<div style=""font-size:60px;"">+</div>","null","","","","","","delay","","","","","","","","",""
"","3432","continuous_report","270","1369704","0.0-7.0-4.50","","","","109,148,43","189.10371511986338,-176.58951857178536,123.1322950651317","65.11363089143133,93.89431255717821,-157.60215072134434","Probe","","null","672","439","35,134,167","44","1","32,134,165","43","2"
"","null","html-keyboard-response","271","1370705","0.0-7.0-0.51","<div style=""font-size:60px;"">+</div>","null","","","","","fixation","","","","","","","","","",""
"","null","snap-keyboard-response","272","1370808","0.0-7.0-1.51","","null","","52,154,87","-169.60961923128522,71.67358990905991,71.67358990906007","-105.98385284664096,-186.7160852994404,186.71608529944035","encoding","","","","","","","","","",""
"","null","html-keyboard-response","273","1371109","0.0-7.0-2.51","<div style=""font-size:60px;"">+</div>","null","","","","","","delay","","","","","","","","",""
"","null","html-keyboard-response","274","1372311","0.0-7.0-3.51","<div style=""font-size:60px;"">+</div>","null","","","","","","delay","","","","","","","","",""
"","6481","continuous_report","275","1378794","0.0-7.0-4.51","","","","52,154,87","-169.60961923128522,71.67358990905991,71.67358990906007","-105.98385284664096,-186.7160852994404,186.71608529944035","Probe","","null","812","304","32,134,165","43","-9","66,129,179","52","0"
"","null","html-keyboard-response","276","1379795","0.0-7.0-0.52","<div style=""font-size:60px;"">+</div>","null","","","","","fixation","","","","","","","","","",""
"","null","snap-keyboard-response","277","1379898","0.0-7.0-1.52","","null","","40,85,131","178.20130483767358,185.43677091335746,-71.67358990906014","90.79809994790935,-74.92131868318246,-186.71608529944032","encoding","","","","","","","","","",""
"","null","html-keyboard-response","278","1380199","0.0-7.0-2.52","<div style=""font-size:60px;"">+</div>","null","","","","","","delay","","","","","","","","",""
"","null","html-keyboard-response","279","1381401","0.0-7.0-3.52","<div style=""font-size:60px;"">+</div>","null","","","","","","delay","","","","","","","","",""
"","2982","continuous_report","280","1384385","0.0-7.0-4.52","","","","40,85,131","178.20130483767358,185.43677091335746,-71.67358990906014","90.79809994790935,-74.92131868318246,-186.71608529944032","Probe","","null","939","333","36,137,147","35","-5","23,135,159","40","0"
"","null","html-keyboard-response","281","1385386","0.0-7.0-0.53","<div style=""font-size:60px;"">+</div>","null","","","","","fixation","","","","","","","","","",""
"","null","snap-keyboard-response","282","1385488","0.0-7.0-1.53","","null","","10,112,84","-120.36300463040968,-133.82612127177168,153.20888862379562","159.72710200945858,-148.6289650954788,128.55752193730785","encoding","","","","","","","","","",""
"","null","html-keyboard-response","283","1385789","0.0-7.0-2.53","<div style=""font-size:60px;"">+</div>","null","","","","","","delay","","","","","","","","",""
"","null","html-keyboard-response","284","1386990","0.0-7.0-3.53","<div style=""font-size:60px;"">+</div>","null","","","","","","delay","","","","","","","","",""
"","4390","continuous_report","285","1391382","0.0-7.0-4.53","","","","10,112,84","-120.36300463040968,-133.82612127177168,153.20888862379562","159.72710200945858,-148.6289650954788,128.55752193730785","Probe","","null","798","479","99,137,93","13","3","106,137,86","10","0"
"","null","html-keyboard-response","286","1392384","0.0-7.0-0.54","<div style=""font-size:60px;"">+</div>","null","","","","","fixation","","","","","","","","","",""
"","null","snap-keyboard-response","287","1392486","0.0-7.0-1.54","","null","","119,161,19","-58.47434094454741,197.53766811902753,-199.23893961834912","-191.26095119260705,-31.286893008046224,17.431148549531727","encoding","","","","","","","","","",""
"","null","html-keyboard-response","288","1392787","0.0-7.0-2.54","<div style=""font-size:60px;"">+</div>","null","","","","","","delay","","","","","","","","",""
"","null","html-keyboard-response","289","1393988","0.0-7.0-3.54","<div style=""font-size:60px;"">+</div>","null","","","","","","delay","","","","","","","","",""
"","3388","continuous_report","290","1397378","0.0-7.0-4.54","","","","119,161,19","-58.47434094454741,197.53766811902753,-199.23893961834912","-191.26095119260705,-31.286893008046224,17.431148549531727","Probe","","null","735","397","241,67,125","107","-12","246,68,96","119","0"
"","null","html-keyboard-response","291","1398380","0.0-7.0-0.55","<div style=""font-size:60px;"">+</div>","null","","","","","fixation","","","","","","","","","",""
"","null","snap-keyboard-response","292","1398482","0.0-7.0-1.55","","null","","102,129,22","-153.20888862379562,146.2707403238341,61.80339887498945","-128.55752193730785,136.3996720124997,-190.21130325903073","encoding","","","","","","","","","",""
"","null","html-keyboard-response","293","1398783","0.0-7.0-2.55","<div style=""font-size:60px;"">+</div>","null","","","","","","delay","","","","","","","","",""
"","null","html-keyboard-response","294","1399985","0.0-7.0-3.55","<div style=""font-size:60px;"">+</div>","null","","","","","","delay","","","","","","","","",""
"","6538","continuous_report","295","1406525","0.0-7.0-4.55","","","","102,129,22","-153.20888862379562,146.2707403238341,61.80339887498945","-128.55752193730785,136.3996720124997,-190.21130325903073","Probe","","null","752","364","96,137,95","14","-88","234,71,137","102","0"
"","null","html-keyboard-response","296","1407526","0.0-7.0-0.56","<div style=""font-size:60px;"">+</div>","null","","","","","fixation","","","","","","","","","",""
"","null","snap-keyboard-response","297","1407628","0.0-7.0-1.56","","null","","151,95,127","194.87401295704703,78.14622569785477,-3.6739403974420595e-14","-44.99021086877307,184.10097069048805,-200","encoding","","","","","","","","","",""
"","null","html-keyboard-response","298","1407929","0.0-7.0-2.56","<div style=""font-size:60px;"">+</div>","null","","","","","","delay","","","","","","","","",""
"","null","html-keyboard-response","299","1409129","0.0-7.0-3.56","<div style=""font-size:60px;"">+</div>","null","","","","","","delay","","","","","","","","",""
"","29364","continuous_report","300","1438496","0.0-7.0-4.56","","","","151,95,127","194.87401295704703,78.14622569785477,-3.6739403974420595e-14","-44.99021086877307,184.10097069048805,-200","Probe","","null","879","474","233,87,63","135","8","242,76,78","127","2"
"","null","html-keyboard-response","301","1439497","0.0-7.0-0.57","<div style=""font-size:60px;"">+</div>","null","","","","","fixation","","","","","","","","","",""
"","null","snap-keyboard-response","302","1439600","0.0-7.0-1.57","","null","","64,118,141","-163.83040885779835,123.13229506513166,17.431148549531578","114.71528727020927,157.60215072134437,-199.23893961834912","encoding","","","","","","","","","",""
"","null","html-keyboard-response","303","1439901","0.0-7.0-2.57","<div style=""font-size:60px;"">+</div>","null","","","","","","delay","","","","","","","","",""
"","null","html-keyboard-response","304","1441103","0.0-7.0-3.57","<div style=""font-size:60px;"">+</div>","null","","","","","","delay","","","","","","","","",""
"","2239","continuous_report","305","1443345","0.0-7.0-4.57","","","","64,118,141","-163.83040885779835,123.13229506513166,17.431148549531578","114.71528727020927,157.60215072134437,-199.23893961834912","Probe","","null","670","302","155,108,186","74","10","115,119,189","64","0"
"","null","html-keyboard-response","306","1444346","0.0-7.0-0.58","<div style=""font-size:60px;"">+</div>","null","","","","","fixation","","","","","","","","","",""
"","null","snap-keyboard-response","307","1444449","0.0-7.0-1.58","","null","","54,36,133","-44.99021086877296,78.1462256978547,190.2113032590307","194.87401295704706,-184.1009706904881,-61.803398874989526","encoding","","","","","","","","","",""
"","null","html-keyboard-response","308","1444750","0.0-7.0-2.58","<div style=""font-size:60px;"">+</div>","null","","","","","","delay","","","","","","","","",""
"","null","html-keyboard-response","309","1445952","0.0-7.0-3.58","<div style=""font-size:60px;"">+</div>","null","","","","","","delay","","","","","","","","",""
"","5019","continuous_report","310","1450972","0.0-7.0-4.58","","","","54,36,133","-44.99021086877296,78.1462256978547,190.2113032590307","194.87401295704706,-184.1009706904881,-61.803398874989526","Probe","","null","799","516","244,74,83","125","-8","235,84,66","133","2"
"","null","html-keyboard-response","311","1451976","0.0-7.0-0.59","<div style=""font-size:60px;"">+</div>","null","","","","","fixation","","","","","","","","","",""
"","null","snap-keyboard-response","312","1452079","0.0-7.0-1.59","","null","","106,6,147","194.0591452551993,153.2088886237956,-17.431148549531645","48.38437911993355,-128.5575219373079,199.23893961834912","encoding","","","","","","","","","",""
"","null","html-keyboard-response","313","1452380","0.0-7.0-2.59","<div style=""font-size:60px;"">+</div>","null","","","","","","delay","","","","","","","","",""
"","null","html-keyboard-response","314","1453582","0.0-7.0-3.59","<div style=""font-size:60px;"">+</div>","null","","","","","","delay","","","","","","","","",""
"","3238","continuous_report","315","1456822","0.0-7.0-4.59","","","","106,6,147","194.0591452551993,153.2088886237956,-17.431148549531645","48.38437911993355,-128.5575219373079,199.23893961834912","Probe","","null","1011","370","109,136,83","9","3","116,135,77","6","1"
"[{""page_index"":0,""viewing_time"":5752}]","5752","instructions","316","1462574","0.0-8.0","","","","","","","","","","","","","","","","",""
