"view_history","rt","trial_type","trial_index","time_elapsed","internal_node_id","stimulus","key_press","prac_part","colIndex","allLocX","allLocY","test_part","mainExp_part","condType","xClicked","yClicked","responseCol","responseInd","responseError","correctCol","correctColIndex","probLocIndex"
"[{""page_index"":0,""viewing_time"":10013}]","10013","instructions","0","10013","0.0-0.0","","","","","","","","","","","","","","","","",""
"[{""page_index"":0,""viewing_time"":1676}]","1676","instructions","1","11689","0.0-1.0","","","","","","","","","","","","","","","","",""
"","null","html-keyboard-response","2","12691","0.0-2.0-0.0","<div style=""font-size:60px;"">+</div>","null","fixation","","","","","","","","","","","","","",""
"","null","snap-keyboard-response","3","14695","0.0-2.0-1.0","1","null","","22,139,39","-189.10371511986335,189.1037151198633,81.34732861516012","-65.11363089143136,-65.11363089143151,-182.70909152852016","encoding","","","","","","","","","",""
"","null","html-keyboard-response","4","14796","0.0-2.0-2.0","<div style=""font-size:60px;"">+</div>","null","","","","","","delay","","","","","","","","",""
"","null","mask-keyboard-response","5","15001","0.0-2.0-3.0","1","null","","22,139,39","-189.10371511986335,189.1037151198633,81.34732861516012","-65.11363089143136,-65.11363089143151,-182.70909152852016","backward_mask","","","","","","","","","",""
"","null","html-keyboard-response","6","16203","0.0-2.0-4.0","<div style=""font-size:60px;"">+</div>","null","","","","","","delay","","","","","","","","",""
"","5271","continuous_report","7","21477","0.0-2.0-5.0","1","","","22,139,39","-189.10371511986335,189.1037151198633,81.34732861516012","-65.11363089143136,-65.11363089143151,-182.70909152852016","Probe","","null","824","256","58,138,130","28","-111","226,92,56","139","1"
"","null","html-keyboard-response","8","22478","0.0-2.0-0.1","<div style=""font-size:60px;"">+</div>","null","fixation","","","","","","","","","","","","","",""
"","null","snap-keyboard-response","9","24480","0.0-2.0-1.1","2","null","","54,171,84","196.96155060244158,-6.979899340500328,141.4213562373095","-34.72963553338626,-199.87816540381914,141.42135623730948","encoding","","","","","","","","","",""
"","null","html-keyboard-response","10","24581","0.0-2.0-2.1","<div style=""font-size:60px;"">+</div>","null","","","","","","delay","","","","","","","","",""
"","null","mask-keyboard-response","11","24784","0.0-2.0-3.1","2","null","","54,171,84","196.96155060244158,-6.979899340500328,141.4213562373095","-34.72963553338626,-199.87816540381914,141.42135623730948","backward_mask","","","","","","","","","",""
"","null","html-keyboard-response","12","25985","0.0-2.0-4.1","<div style=""font-size:60px;"">+</div>","null","","","","","","delay","","","","","","","","",""
"","5704","continuous_report","13","31691","0.0-2.0-5.1","2","","","54,171,84","196.96155060244158,-6.979899340500328,141.4213562373095","-34.72963553338626,-199.87816540381914,141.42135623730948","Probe","","null","694","180","32,134,165","43","-11","74,128,182","54","0"
"[{""page_index"":0,""viewing_time"":1845}]","1845","instructions","14","33536","0.0-3.0","","","","","","","","","","","","","","","","",""
"","null","html-keyboard-response","15","34538","0.0-4.0-0.0","<div style=""font-size:60px;"">+</div>","null","fixation","","","","","","","","","","","","","",""
"","null","snap-keyboard-response","16","34640","0.0-4.0-1.0","1","null","","17,53,124","-61.80339887498951,-117.5570504584946,100","-190.2113032590307,161.80339887498948,-173.20508075688772","encoding","","","","","","","","","",""
"","null","html-keyboard-response","17","34741","0.0-4.0-2.0","<div style=""font-size:60px;"">+</div>","null","","","","","","delay","","","","","","","","",""
"","null","mask-keyboard-response","18","34945","0.0-4.0-3.0","1","null","","17,53,124","-61.80339887498951,-117.5570504584946,100","-190.2113032590307,161.80339887498948,-173.20508075688772","backward_mask","","","","","","","","","",""
"","null","html-keyboard-response","19","36446","0.0-4.0-4.0","<div style=""font-size:60px;"">+</div>","null","","","","","","delay","","","","","","","","",""
"","4244","continuous_report","20","40691","0.0-4.0-5.0","1","","","17,53,124","-61.80339887498951,-117.5570504584946,100","-190.2113032590307,161.80339887498948,-173.20508075688772","Probe","","null","713","257","26,136,154","38","-15","70,128,181","53","1"
"","null","html-keyboard-response","21","41691","0.0-4.0-0.1","<div style=""font-size:60px;"">+</div>","null","fixation","","","","","","","","","","","","","",""
"","null","snap-keyboard-response","22","41792","0.0-4.0-1.1","2","null","","97,31,49","-186.71608529944035,190.2113032590307,1.2246467991473532e-14","71.67358990906004,61.803398874989476,200","encoding","","","","","","","","","",""
"","null","html-keyboard-response","23","41893","0.0-4.0-2.1","<div style=""font-size:60px;"">+</div>","null","","","","","","delay","","","","","","","","",""
"","null","mask-keyboard-response","24","42096","0.0-4.0-3.1","2","null","","97,31,49","-186.71608529944035,190.2113032590307,1.2246467991473532e-14","71.67358990906004,61.803398874989476,200","backward_mask","","","","","","","","","",""
"","null","html-keyboard-response","25","43597","0.0-4.0-4.1","<div style=""font-size:60px;"">+</div>","null","","","","","","delay","","","","","","","","",""
"","2178","continuous_report","26","45776","0.0-4.0-5.1","2","","","97,31,49","-186.71608529944035,190.2113032590307,1.2246467991473532e-14","71.67358990906004,61.803398874989476,200","Probe","","null","674","468","64,138,125","26","-71","225,76,149","97","0"
"","null","html-keyboard-response","27","46778","0.0-4.0-0.2","<div style=""font-size:60px;"">+</div>","null","fixation","","","","","","","","","","","","","",""
"","null","snap-keyboard-response","28","46879","0.0-4.0-1.2","3","null","","98,122,78","-186.71608529944032,-179.7588092598334,186.7160852994403","-71.67358990906008,87.67422935781546,-71.67358990906015","encoding","","","","","","","","","",""
"","null","html-keyboard-response","29","46980","0.0-4.0-2.2","<div style=""font-size:60px;"">+</div>","null","","","","","","delay","","","","","","","","",""
"","null","mask-keyboard-response","30","47183","0.0-4.0-3.2","3","null","","98,122,78","-186.71608529944032,-179.7588092598334,186.7160852994403","-71.67358990906008,87.67422935781546,-71.67358990906015","backward_mask","","","","","","","","","",""
"","null","html-keyboard-response","31","48685","0.0-4.0-4.2","<div style=""font-size:60px;"">+</div>","null","","","","","","delay","","","","","","","","",""
"","937","continuous_report","32","49623","0.0-4.0-5.2","3","","","98,122,78","-186.71608529944032,-179.7588092598334,186.7160852994403","-71.67358990906008,87.67422935781546,-71.67358990906015","Probe","","null","911","465","134,132,62","179","57","245,70,89","122","1"
"","null","html-keyboard-response","33","50624","0.0-4.0-0.3","<div style=""font-size:60px;"">+</div>","null","fixation","","","","","","","","","","","","","",""
"","null","snap-keyboard-response","34","50726","0.0-4.0-1.3","4","null","","76,105,16","-68.40402866513386,-44.99021086877296,-186.71608529944032","-187.93852415718163,194.87401295704706,-71.67358990906008","encoding","","","","","","","","","",""
"","null","html-keyboard-response","35","50827","0.0-4.0-2.3","<div style=""font-size:60px;"">+</div>","null","","","","","","delay","","","","","","","","",""
"","null","mask-keyboard-response","36","51031","0.0-4.0-3.3","4","null","","76,105,16","-68.40402866513386,-44.99021086877296,-186.71608529944032","-187.93852415718163,194.87401295704706,-71.67358990906008","backward_mask","","","","","","","","","",""
"","null","html-keyboard-response","37","52532","0.0-4.0-4.3","<div style=""font-size:60px;"">+</div>","null","","","","","","delay","","","","","","","","",""
"","634","continuous_report","38","53167","0.0-4.0-5.3","4","","","76,105,16","-68.40402866513386,-44.99021086877296,-186.71608529944032","-187.93852415718163,194.87401295704706,-71.67358990906008","Probe","","null","1013","385","70,128,181","53","37","91,138,100","16","2"
"","null","html-keyboard-response","39","54169","0.0-4.0-0.4","<div style=""font-size:60px;"">+</div>","null","fixation","","","","","","","","","","","","","",""
"","null","snap-keyboard-response","40","54271","0.0-4.0-1.4","","null","","159,128,24","189.10371511986338,-27.83462019201307,179.75880925983344","65.11363089143133,198.05361374831406,-87.67422935781539","encoding","","","","","","","","","",""
"","null","html-keyboard-response","41","54372","0.0-4.0-2.4","<div style=""font-size:60px;"">+</div>","null","","","","","","delay","","","","","","","","",""
"","null","mask-keyboard-response","42","54576","0.0-4.0-3.4","","null","","159,128,24","189.10371511986338,-27.83462019201307,179.75880925983344","65.11363089143133,198.05361374831406,-87.67422935781539","backward_mask","","","","","","","","","",""
"","null","html-keyboard-response","43","56077","0.0-4.0-4.4","<div style=""font-size:60px;"">+</div>","null","","","","","","delay","","","","","","","","",""
"","69","continuous_report","44","56149","0.0-4.0-5.4","","","","159,128,24","189.10371511986338,-27.83462019201307,179.75880925983344","65.11363089143133,198.05361374831406,-87.67422935781539","Probe","","null","997","337","96,137,95","14","-114","241,77,76","128","1"
"","null","html-keyboard-response","45","57150","0.0-4.0-0.5","<div style=""font-size:60px;"">+</div>","null","fixation","","","","","","","","","","","","","",""
"","null","snap-keyboard-response","46","57251","0.0-4.0-1.5","","null","","26,67,137","120.36300463040968,41.58233816355171,194.0591452551993","159.72710200945858,-195.62952014676117,-48.38437911993358","encoding","","","","","","","","","",""
"","null","html-keyboard-response","47","57352","0.0-4.0-2.5","<div style=""font-size:60px;"">+</div>","null","","","","","","delay","","","","","","","","",""
"","null","mask-keyboard-response","48","57556","0.0-4.0-3.5","","null","","26,67,137","120.36300463040968,41.58233816355171,194.0591452551993","159.72710200945858,-195.62952014676117,-48.38437911993358","backward_mask","","","","","","","","","",""
"","null","html-keyboard-response","49","59057","0.0-4.0-4.5","<div style=""font-size:60px;"">+</div>","null","","","","","","delay","","","","","","","","",""
"","735","continuous_report","50","59793","0.0-4.0-5.5","","","","26,67,137","120.36300463040968,41.58233816355171,194.0591452551993","159.72710200945858,-195.62952014676117,-48.38437911993358","Probe","","null","951","412","151,128,50","172","35","230,89,59","137","2"
"","null","html-keyboard-response","51","60795","0.0-4.0-0.6","<div style=""font-size:60px;"">+</div>","null","fixation","","","","","","","","","","","","","",""
"","null","snap-keyboard-response","52","60897","0.0-4.0-1.6","","null","","51,131,99","150.94191604455438,-74.92131868318246,-155.42919229139414","-131.21180579810147,-185.43677091335746,125.86407820996754","encoding","","","","","","","","","",""
"","null","html-keyboard-response","53","60997","0.0-4.0-2.6","<div style=""font-size:60px;"">+</div>","null","","","","","","delay","","","","","","","","",""
"","null","mask-keyboard-response","54","61200","0.0-4.0-3.6","","null","","51,131,99","150.94191604455438,-74.92131868318246,-155.42919229139414","-131.21180579810147,-185.43677091335746,125.86407820996754","backward_mask","","","","","","","","","",""
"","null","html-keyboard-response","55","62702","0.0-4.0-4.6","<div style=""font-size:60px;"">+</div>","null","","","","","","delay","","","","","","","","",""
"","926","continuous_report","56","63630","0.0-4.0-5.6","","","","51,131,99","150.94191604455438,-74.92131868318246,-155.42919229139414","-131.21180579810147,-185.43677091335746,125.86407820996754","Probe","","null","951","412","244,66,118","110","59","62,130,178","51","0"
"","null","html-keyboard-response","57","64632","0.0-4.0-0.7","<div style=""font-size:60px;"">+</div>","null","fixation","","","","","","","","","","","","","",""
"","null","snap-keyboard-response","58","64733","0.0-4.0-1.7","","null","","95,41,77","-196.3254366895328,176.5895185717854,-55.127471163399775","38.16179907530899,93.89431255717817,-192.2523391876638","encoding","","","","","","","","","",""
"","null","html-keyboard-response","59","64834","0.0-4.0-2.7","<div style=""font-size:60px;"">+</div>","null","","","","","","delay","","","","","","","","",""
"","null","mask-keyboard-response","60","65036","0.0-4.0-3.7","","null","","95,41,77","-196.3254366895328,176.5895185717854,-55.127471163399775","38.16179907530899,93.89431255717817,-192.2523391876638","backward_mask","","","","","","","","","",""
"","null","html-keyboard-response","61","66537","0.0-4.0-4.7","<div style=""font-size:60px;"">+</div>","null","","","","","","delay","","","","","","","","",""
"","905","continuous_report","62","67443","0.0-4.0-5.7","","","","95,41,77","-196.3254366895328,176.5895185717854,-55.127471163399775","38.16179907530899,93.89431255717817,-192.2523391876638","Probe","","null","951","412","70,138,120","24","-17","25,135,161","41","1"
"","null","html-keyboard-response","63","68444","0.0-4.0-0.8","<div style=""font-size:60px;"">+</div>","null","fixation","","","","","","","","","","","","","",""
"","null","snap-keyboard-response","64","68547","0.0-4.0-1.8","","null","","25,58,10","-173.20508075688772,-31.286893008046214,103.00761498201088","-100.00000000000003,-197.53766811902753,171.43346014042243","encoding","","","","","","","","","",""
"","null","html-keyboard-response","65","68649","0.0-4.0-2.8","<div style=""font-size:60px;"">+</div>","null","","","","","","delay","","","","","","","","",""
"","null","mask-keyboard-response","66","68852","0.0-4.0-3.8","","null","","25,58,10","-173.20508075688772,-31.286893008046214,103.00761498201088","-100.00000000000003,-197.53766811902753,171.43346014042243","backward_mask","","","","","","","","","",""
"","null","html-keyboard-response","67","70352","0.0-4.0-4.8","<div style=""font-size:60px;"">+</div>","null","","","","","","delay","","","","","","","","",""
"","733","continuous_report","68","71088","0.0-4.0-5.8","","","","25,58,10","-173.20508075688772,-31.286893008046214,103.00761498201088","-100.00000000000003,-197.53766811902753,171.43346014042243","Probe","","null","951","412","246,66,106","115","105","106,137,86","10","2"
"","null","html-keyboard-response","69","72089","0.0-4.0-0.9","<div style=""font-size:60px;"">+</div>","null","fixation","","","","","","","","","","","","","",""
"","null","snap-keyboard-response","70","72191","0.0-4.0-1.9","","null","","12,102,165","-13.951294748825068,-187.9385241571817,-179.7588092598334","199.51281005196483,-68.40402866513374,87.67422935781546","encoding","","","","","","","","","",""
"","null","html-keyboard-response","71","72292","0.0-4.0-2.9","<div style=""font-size:60px;"">+</div>","null","","","","","","delay","","","","","","","","",""
"","null","mask-keyboard-response","72","72495","0.0-4.0-3.9","","null","","12,102,165","-13.951294748825068,-187.9385241571817,-179.7588092598334","199.51281005196483,-68.40402866513374,87.67422935781546","backward_mask","","","","","","","","","",""
"","null","html-keyboard-response","73","73997","0.0-4.0-4.9","<div style=""font-size:60px;"">+</div>","null","","","","","","delay","","","","","","","","",""
"","1364","continuous_report","74","75363","0.0-4.0-5.9","","","","12,102,165","-13.951294748825068,-187.9385241571817,-179.7588092598334","199.51281005196483,-68.40402866513374,87.67422935781546","Probe","","null","951","412","83,138,108","19","-83","234,71,137","102","1"
"[{""page_index"":0,""viewing_time"":5905}]","5906","instructions","75","81269","0.0-5.0","","","","","","","","","","","","","","","","",""
"[{""page_index"":0,""viewing_time"":3217}]","3217","instructions","76","84486","0.0-6.0","","","","","","","","","","","","","","","","",""
"","null","html-keyboard-response","77","85487","0.0-7.0-0.0","<div style=""font-size:60px;"">+</div>","null","","","","","fixation","","","","","","","","","",""
"","null","snap-keyboard-response","78","85589","0.0-7.0-1.0","1","null","","76,173,12","150.9419160445544,-185.43677091335746,-157.60215072134446","131.21180579810144,74.92131868318245,-123.13229506513157","encoding","","","","","","","","","",""
"","null","html-keyboard-response","79","85690","0.0-7.0-2.0","<div style=""font-size:60px;"">+</div>","null","","","","","","delay","","","","","","","","",""
"","null","mask-keyboard-response","80","85893","0.0-7.0-3.0","1","null","","76,173,12","150.9419160445544,-185.43677091335746,-157.60215072134446","131.21180579810144,74.92131868318245,-123.13229506513157","backward_mask","","","","","","","","","",""
"","null","html-keyboard-response","81","87094","0.0-7.0-4.0","<div style=""font-size:60px;"">+</div>","null","","","","","","delay","","","","","","","","",""
"","5535","continuous_report","82","92632","0.0-7.0-5.0","1","","","76,173,12","150.9419160445544,-185.43677091335746,-157.60215072134446","131.21180579810144,74.92131868318245,-123.13229506513157","Probe","","null","758","452","58,138,130","28","16","101,137,90","12","2"
"","null","html-keyboard-response","83","93633","0.0-7.0-0.1","<div style=""font-size:60px;"">+</div>","null","","","","","fixation","","","","","","","","","",""
"","null","snap-keyboard-response","84","93735","0.0-7.0-1.1","2","null","","57,99,163","136.3996720124996,-138.9316740917994,189.10371511986338","-146.2707403238342,143.86796006773028,65.11363089143133","encoding","","","","","","","","","",""
"","null","html-keyboard-response","85","93835","0.0-7.0-2.1","<div style=""font-size:60px;"">+</div>","null","","","","","","delay","","","","","","","","",""
"","null","mask-keyboard-response","86","94038","0.0-7.0-3.1","2","null","","57,99,163","136.3996720124996,-138.9316740917994,189.10371511986338","-146.2707403238342,143.86796006773028,65.11363089143133","backward_mask","","","","","","","","","",""
"","null","html-keyboard-response","87","95238","0.0-7.0-4.1","<div style=""font-size:60px;"">+</div>","null","","","","","","delay","","","","","","","","",""
"","18045","continuous_report","88","113285","0.0-7.0-5.1","2","","","57,99,163","136.3996720124996,-138.9316740917994,189.10371511986338","-146.2707403238342,143.86796006773028,65.11363089143133","Probe","","null","901","399","154,127,48","171","8","173,121,38","163","2"
"","null","html-keyboard-response","89","114287","0.0-7.0-0.2","<div style=""font-size:60px;"">+</div>","null","","","","","fixation","","","","","","","","","",""
"","null","snap-keyboard-response","90","114389","0.0-7.0-1.2","3","null","","35,96,132","190.2113032590307,-199.87816540381914,165.80751451100832","-61.803398874989526,-6.979899340500179,111.83858069414939","encoding","","","","","","","","","",""
"","null","html-keyboard-response","91","114491","0.0-7.0-2.2","<div style=""font-size:60px;"">+</div>","null","","","","","","delay","","","","","","","","",""
"","null","mask-keyboard-response","92","114694","0.0-7.0-3.2","3","null","","35,96,132","190.2113032590307,-199.87816540381914,165.80751451100832","-61.803398874989526,-6.979899340500179,111.83858069414939","backward_mask","","","","","","","","","",""
"","null","html-keyboard-response","93","115895","0.0-7.0-4.2","<div style=""font-size:60px;"">+</div>","null","","","","","","delay","","","","","","","","",""
"","3597","continuous_report","94","119496","0.0-7.0-5.2","3","","","35,96,132","190.2113032590307,-199.87816540381914,165.80751451100832","-61.803398874989526,-6.979899340500179,111.83858069414939","Probe","","null","787","207","39,133,168","45","-87","237,82,68","132","2"
"","null","html-keyboard-response","95","120497","0.0-7.0-0.3","<div style=""font-size:60px;"">+</div>","null","","","","","fixation","","","","","","","","","",""
"","null","snap-keyboard-response","96","120599","0.0-7.0-1.3","4","null","","65,10,117","-133.82612127177168,167.7341135890848,10.467191248588794","-148.6289650954788,-108.9278070030054,199.72590695091478","encoding","","","","","","","","","",""
"","null","html-keyboard-response","97","120700","0.0-7.0-2.3","<div style=""font-size:60px;"">+</div>","null","","","","","","delay","","","","","","","","",""
"","null","mask-keyboard-response","98","120903","0.0-7.0-3.3","4","null","","65,10,117","-133.82612127177168,167.7341135890848,10.467191248588794","-148.6289650954788,-108.9278070030054,199.72590695091478","backward_mask","","","","","","","","","",""
"","null","html-keyboard-response","99","122104","0.0-7.0-4.3","<div style=""font-size:60px;"">+</div>","null","","","","","","delay","","","","","","","","",""
"","6446","continuous_report","100","128552","0.0-7.0-5.3","4","","","65,10,117","-133.82612127177168,167.7341135890848,10.467191248588794","-148.6289650954788,-108.9278070030054,199.72590695091478","Probe","","null","869","221","190,94,175","84","19","119,118,189","65","0"
"","null","html-keyboard-response","101","129553","0.0-7.0-0.4","<div style=""font-size:60px;"">+</div>","null","","","","","fixation","","","","","","","","","",""
"","null","snap-keyboard-response","102","129654","0.0-7.0-1.4","","null","","61,17,167","-138.93167409179952,-3.490481287456695,-199.87816540381914","-143.86796006773017,199.96953903127826,6.97989934050014","encoding","","","","","","","","","",""
"","null","html-keyboard-response","103","129756","0.0-7.0-2.4","<div style=""font-size:60px;"">+</div>","null","","","","","","delay","","","","","","","","",""
"","null","mask-keyboard-response","104","129958","0.0-7.0-3.4","","null","","61,17,167","-138.93167409179952,-3.490481287456695,-199.87816540381914","-143.86796006773017,199.96953903127826,6.97989934050014","backward_mask","","","","","","","","","",""
"","null","html-keyboard-response","105","131160","0.0-7.0-4.4","<div style=""font-size:60px;"">+</div>","null","","","","","","delay","","","","","","","","",""
"","2159","continuous_report","106","133322","0.0-7.0-5.4","","","","61,17,167","-138.93167409179952,-3.490481287456695,-199.87816540381914","-143.86796006773017,199.96953903127826,6.97989934050014","Probe","","null","690","105","104,137,88","11","-156","164,124,43","167","2"
"","null","html-keyboard-response","107","134323","0.0-7.0-0.5","<div style=""font-size:60px;"">+</div>","null","","","","","fixation","","","","","","","","","",""
"","null","snap-keyboard-response","108","134424","0.0-7.0-1.5","","null","","29,50,77","133.82612127177157,199.96953903127826,-199.51281005196483","-148.62896509547895,3.4904812874567024,13.951294748825106","encoding","","","","","","","","","",""
"","null","html-keyboard-response","109","134526","0.0-7.0-2.5","<div style=""font-size:60px;"">+</div>","null","","","","","","delay","","","","","","","","",""
"","null","mask-keyboard-response","110","134729","0.0-7.0-3.5","","null","","29,50,77","133.82612127177157,199.96953903127826,-199.51281005196483","-148.62896509547895,3.4904812874567024,13.951294748825106","backward_mask","","","","","","","","","",""
"","null","html-keyboard-response","111","135930","0.0-7.0-4.5","<div style=""font-size:60px;"">+</div>","null","","","","","","delay","","","","","","","","",""
"","3857","continuous_report","112","139791","0.0-7.0-5.5","","","","29,50,77","133.82612127177157,199.96953903127826,-199.51281005196483","-148.62896509547895,3.4904812874567024,13.951294748825106","Probe","","null","1029","252","229,74,144","99","22","166,104,184","77","2"
"","null","html-keyboard-response","113","140793","0.0-7.0-0.6","<div style=""font-size:60px;"">+</div>","null","","","","","fixation","","","","","","","","","",""
"","null","snap-keyboard-response","114","140894","0.0-7.0-1.6","","null","","50,75,94","141.4213562373095,10.467191248588788,-87.6742293578155","141.42135623730948,-199.72590695091478,179.75880925983338","encoding","","","","","","","","","",""
"","null","html-keyboard-response","115","140996","0.0-7.0-2.6","<div style=""font-size:60px;"">+</div>","null","","","","","","delay","","","","","","","","",""
"","null","mask-keyboard-response","116","141199","0.0-7.0-3.6","","null","","50,75,94","141.4213562373095,10.467191248588788,-87.6742293578155","141.42135623730948,-199.72590695091478,179.75880925983338","backward_mask","","","","","","","","","",""
"","null","html-keyboard-response","117","142401","0.0-7.0-4.6","<div style=""font-size:60px;"">+</div>","null","","","","","","delay","","","","","","","","",""
"","7703","continuous_report","118","150106","0.0-7.0-5.6","","","","50,75,94","141.4213562373095,10.467191248588788,-87.6742293578155","141.42135623730948,-199.72590695091478,179.75880925983338","Probe","","null","875","551","225,76,149","97","3","218,80,156","94","2"
"","null","html-keyboard-response","119","151107","0.0-7.0-0.7","<div style=""font-size:60px;"">+</div>","null","","","","","fixation","","","","","","","","","",""
"","null","snap-keyboard-response","120","151209","0.0-7.0-1.7","","null","","19,136,35","103.00761498201088,-74.92131868318246,197.53766811902756","171.43346014042243,-185.43677091335746,31.286893008046174","encoding","","","","","","","","","",""
"","null","html-keyboard-response","121","151311","0.0-7.0-2.7","<div style=""font-size:60px;"">+</div>","null","","","","","","delay","","","","","","","","",""
"","null","mask-keyboard-response","122","151514","0.0-7.0-3.7","","null","","19,136,35","103.00761498201088,-74.92131868318246,197.53766811902756","171.43346014042243,-185.43677091335746,31.286893008046174","backward_mask","","","","","","","","","",""
"","null","html-keyboard-response","123","152715","0.0-7.0-4.7","<div style=""font-size:60px;"">+</div>","null","","","","","","delay","","","","","","","","",""
"","3800","continuous_report","124","156518","0.0-7.0-5.7","","","","19,136,35","103.00761498201088,-74.92131868318246,197.53766811902756","171.43346014042243,-185.43677091335746,31.286893008046174","Probe","","null","952","212","51,132,174","48","13","36,137,147","35","2"
"","null","html-keyboard-response","125","157519","0.0-7.0-0.8","<div style=""font-size:60px;"">+</div>","null","","","","","fixation","","","","","","","","","",""
"","null","snap-keyboard-response","126","157621","0.0-7.0-1.8","","null","","151,91,107","68.40402866513377,-138.9316740917994,-161.80339887498948","187.93852415718166,143.86796006773028,-117.5570504584946","encoding","","","","","","","","","",""
"","null","html-keyboard-response","127","157722","0.0-7.0-2.8","<div style=""font-size:60px;"">+</div>","null","","","","","","delay","","","","","","","","",""
"","null","mask-keyboard-response","128","157924","0.0-7.0-3.8","","null","","151,91,107","68.40402866513377,-138.9316740917994,-161.80339887498948","187.93852415718166,143.86796006773028,-117.5570504584946","backward_mask","","","","","","","","","",""
"","null","html-keyboard-response","129","159127","0.0-7.0-4.8","<div style=""font-size:60px;"">+</div>","null","","","","","","delay","","","","","","","","",""
"","6153","continuous_report","130","165281","0.0-7.0-5.8","","","","151,91,107","68.40402866513377,-138.9316740917994,-161.80339887498948","187.93852415718166,143.86796006773028,-117.5570504584946","Probe","","null","890","322","236,70,135","103","-4","241,67,125","107","2"
"","null","html-keyboard-response","131","166283","0.0-7.0-0.9","<div style=""font-size:60px;"">+</div>","null","","","","","fixation","","","","","","","","","",""
"","null","snap-keyboard-response","132","166384","0.0-7.0-1.9","","null","","177,147,72","-163.83040885779835,169.60961923128508,-150.94191604455438","114.71528727020927,-105.98385284664116,-131.2118057981015","encoding","","","","","","","","","",""
"","null","html-keyboard-response","133","166486","0.0-7.0-2.9","<div style=""font-size:60px;"">+</div>","null","","","","","","delay","","","","","","","","",""
"","null","mask-keyboard-response","134","166689","0.0-7.0-3.9","","null","","177,147,72","-163.83040885779835,169.60961923128508,-150.94191604455438","114.71528727020927,-105.98385284664116,-131.2118057981015","backward_mask","","","","","","","","","",""
"","null","html-keyboard-response","135","167890","0.0-7.0-4.9","<div style=""font-size:60px;"">+</div>","null","","","","","","delay","","","","","","","","",""
"","6344","continuous_report","136","174236","0.0-7.0-5.9","","","","177,147,72","-163.83040885779835,169.60961923128508,-150.94191604455438","114.71528727020927,-105.98385284664116,-131.2118057981015","Probe","","null","678","583","43,133,170","46","-101","211,103,44","147","1"
"","null","html-keyboard-response","137","175238","0.0-7.0-0.10","<div style=""font-size:60px;"">+</div>","null","","","","","fixation","","","","","","","","","",""
"","null","snap-keyboard-response","138","175339","0.0-7.0-1.10","","null","","146,15,88","196.9615506024416,-141.42135623730954,17.431148549531578","34.729635533386066,-141.42135623730948,-199.23893961834912","encoding","","","","","","","","","",""
"","null","html-keyboard-response","139","175440","0.0-7.0-2.10","<div style=""font-size:60px;"">+</div>","null","","","","","","delay","","","","","","","","",""
"","null","mask-keyboard-response","140","175643","0.0-7.0-3.10","","null","","146,15,88","196.9615506024416,-141.42135623730954,17.431148549531578","34.729635533386066,-141.42135623730948,-199.23893961834912","backward_mask","","","","","","","","","",""
"","null","html-keyboard-response","141","176845","0.0-7.0-4.10","<div style=""font-size:60px;"">+</div>","null","","","","","","delay","","","","","","","","",""
"","16762","continuous_report","142","193608","0.0-7.0-5.10","","","","146,15,88","196.9615506024416,-141.42135623730954,17.431148549531578","34.729635533386066,-141.42135623730948,-199.23893961834912","Probe","","null","802","467","219,98,49","143","-3","213,102,45","146","0"
"","null","html-keyboard-response","143","194609","0.0-7.0-0.11","<div style=""font-size:60px;"">+</div>","null","","","","","fixation","","","","","","","","","",""
"","null","snap-keyboard-response","144","194711","0.0-7.0-1.11","","null","","122,4,44","-199.96953903127826,41.58233816355189,17.431148549531578","-3.4904812874566384,195.6295201467611,-199.23893961834912","encoding","","","","","","","","","",""
"","null","html-keyboard-response","145","194813","0.0-7.0-2.11","<div style=""font-size:60px;"">+</div>","null","","","","","","delay","","","","","","","","",""
"","null","mask-keyboard-response","146","195016","0.0-7.0-3.11","","null","","122,4,44","-199.96953903127826,41.58233816355189,17.431148549531578","-3.4904812874566384,195.6295201467611,-199.23893961834912","backward_mask","","","","","","","","","",""
"","null","html-keyboard-response","147","196217","0.0-7.0-4.11","<div style=""font-size:60px;"">+</div>","null","","","","","","delay","","","","","","","","",""
"","6872","continuous_report","148","203092","0.0-7.0-5.11","","","","122,4,44","-199.96953903127826,41.58233816355189,17.431148549531578","-3.4904812874566384,195.6295201467611,-199.23893961834912","Probe","","null","777","485","234,71,137","102","-20","245,70,89","122","0"
"","null","html-keyboard-response","149","204093","0.0-7.0-0.12","<div style=""font-size:60px;"">+</div>","null","","","","","fixation","","","","","","","","","",""
"","null","snap-keyboard-response","150","204195","0.0-7.0-1.12","","null","","173,23,87","194.87401295704706,-167.7341135890848,159.72710200945858","44.990210868773,-108.92780700300541,-120.36300463040965","encoding","","","","","","","","","",""
"","null","html-keyboard-response","151","204296","0.0-7.0-2.12","<div style=""font-size:60px;"">+</div>","null","","","","","","delay","","","","","","","","",""
"","null","mask-keyboard-response","152","204500","0.0-7.0-3.12","","null","","173,23,87","194.87401295704706,-167.7341135890848,159.72710200945858","44.990210868773,-108.92780700300541,-120.36300463040965","backward_mask","","","","","","","","","",""
"","null","html-keyboard-response","153","205701","0.0-7.0-4.12","<div style=""font-size:60px;"">+</div>","null","","","","","","delay","","","","","","","","",""
"","7503","continuous_report","154","213206","0.0-7.0-5.12","","","","173,23,87","194.87401295704706,-167.7341135890848,159.72710200945858","44.990210868773,-108.92780700300541,-120.36300463040965","Probe","","null","779","509","171,122,39","164","-9","149,129,51","173","0"
"","null","html-keyboard-response","155","214207","0.0-7.0-0.13","<div style=""font-size:60px;"">+</div>","null","","","","","fixation","","","","","","","","","",""
"","null","snap-keyboard-response","156","214309","0.0-7.0-1.13","","null","","75,139,20","74.92131868318239,-81.34732861516002,123.13229506513166","-185.4367709133575,182.7090915285202,157.60215072134437","encoding","","","","","","","","","",""
"","null","html-keyboard-response","157","214411","0.0-7.0-2.13","<div style=""font-size:60px;"">+</div>","null","","","","","","delay","","","","","","","","",""
"","null","mask-keyboard-response","158","214614","0.0-7.0-3.13","","null","","75,139,20","74.92131868318239,-81.34732861516002,123.13229506513166","-185.4367709133575,182.7090915285202,157.60215072134437","backward_mask","","","","","","","","","",""
"","null","html-keyboard-response","159","215815","0.0-7.0-4.13","<div style=""font-size:60px;"">+</div>","null","","","","","","delay","","","","","","","","",""
"","2575","continuous_report","160","218392","0.0-7.0-5.13","","","","75,139,20","74.92131868318239,-81.34732861516002,123.13229506513166","-185.4367709133575,182.7090915285202,157.60215072134437","Probe","","null","558","624","55,138,133","29","-110","226,92,56","139","1"
"","null","html-keyboard-response","161","219393","0.0-7.0-0.14","<div style=""font-size:60px;"">+</div>","null","","","","","fixation","","","","","","","","","",""
"","null","snap-keyboard-response","162","219495","0.0-7.0-1.14","","null","","36,87,163","199.96953903127826,51.76380902050424,-3.490481287456695","-3.49048128745689,-193.18516525781365,199.96953903127826","encoding","","","","","","","","","",""
"","null","html-keyboard-response","163","219596","0.0-7.0-2.14","<div style=""font-size:60px;"">+</div>","null","","","","","","delay","","","","","","","","",""
"","null","mask-keyboard-response","164","219798","0.0-7.0-3.14","","null","","36,87,163","199.96953903127826,51.76380902050424,-3.490481287456695","-3.49048128745689,-193.18516525781365,199.96953903127826","backward_mask","","","","","","","","","",""
"","null","html-keyboard-response","165","221000","0.0-7.0-4.14","<div style=""font-size:60px;"">+</div>","null","","","","","","delay","","","","","","","","",""
"","7526","continuous_report","166","228528","0.0-7.0-5.14","","","","36,87,163","199.96953903127826,51.76380902050424,-3.490481287456695","-3.49048128745689,-193.18516525781365,199.96953903127826","Probe","","null","714","387","204,107,40","150","-13","173,121,38","163","2"
"","null","html-keyboard-response","167","229531","0.0-7.0-0.15","<div style=""font-size:60px;"">+</div>","null","","","","","fixation","","","","","","","","","",""
"","null","snap-keyboard-response","168","229656","0.0-7.0-1.15","","null","","90,59,39","187.9385241571817,-133.82612127177165,167.7341135890848","68.40402866513374,148.62896509547886,-108.9278070030054","encoding","","","","","","","","","",""
"","null","html-keyboard-response","169","229758","0.0-7.0-2.15","<div style=""font-size:60px;"">+</div>","null","","","","","","delay","","","","","","","","",""
"","null","mask-keyboard-response","170","229960","0.0-7.0-3.15","","null","","90,59,39","187.9385241571817,-133.82612127177165,167.7341135890848","68.40402866513374,148.62896509547886,-108.9278070030054","backward_mask","","","","","","","","","",""
"","null","html-keyboard-response","171","231162","0.0-7.0-4.15","<div style=""font-size:60px;"">+</div>","null","","","","","","delay","","","","","","","","",""
"","8703","continuous_report","172","239867","0.0-7.0-5.15","","","","90,59,39","187.9385241571817,-133.82612127177165,167.7341135890848","68.40402866513374,148.62896509547886,-108.9278070030054","Probe","","null","675","244","55,131,175","49","-10","95,124,187","59","1"
"","null","html-keyboard-response","173","240868","0.0-7.0-0.16","<div style=""font-size:60px;"">+</div>","null","","","","","fixation","","","","","","","","","",""
"","null","snap-keyboard-response","174","240970","0.0-7.0-1.16","","null","","79,106,11","-185.43677091335746,163.83040885779832,-171.43346014042245","74.92131868318245,-114.71528727020927,-103.00761498201084","encoding","","","","","","","","","",""
"","null","html-keyboard-response","175","241071","0.0-7.0-2.16","<div style=""font-size:60px;"">+</div>","null","","","","","","delay","","","","","","","","",""
"","null","mask-keyboard-response","176","241274","0.0-7.0-3.16","","null","","79,106,11","-185.43677091335746,163.83040885779832,-171.43346014042245","74.92131868318245,-114.71528727020927,-103.00761498201084","backward_mask","","","","","","","","","",""
"","null","html-keyboard-response","177","242475","0.0-7.0-4.16","<div style=""font-size:60px;"">+</div>","null","","","","","","delay","","","","","","","","",""
"","6884","continuous_report","178","249361","0.0-7.0-5.16","","","","79,106,11","-185.43677091335746,163.83040885779832,-171.43346014042245","74.92131868318245,-114.71528727020927,-103.00761498201084","Probe","","null","757","497","36,137,147","35","24","104,137,88","11","2"
"","null","html-keyboard-response","179","250363","0.0-7.0-0.17","<div style=""font-size:60px;"">+</div>","null","","","","","fixation","","","","","","","","","",""
"","null","snap-keyboard-response","180","250466","0.0-7.0-1.17","","null","","64,20,83","199.96953903127826,-157.60215072134437,90.79809994790932","-3.49048128745689,123.13229506513169,-178.2013048376736","encoding","","","","","","","","","",""
"","null","html-keyboard-response","181","250566","0.0-7.0-2.17","<div style=""font-size:60px;"">+</div>","null","","","","","","delay","","","","","","","","",""
"","null","mask-keyboard-response","182","250768","0.0-7.0-3.17","","null","","64,20,83","199.96953903127826,-157.60215072134437,90.79809994790932","-3.49048128745689,123.13229506513169,-178.2013048376736","backward_mask","","","","","","","","","",""
"","null","html-keyboard-response","183","251970","0.0-7.0-4.17","<div style=""font-size:60px;"">+</div>","null","","","","","","delay","","","","","","","","",""
"","2498","continuous_report","184","254469","0.0-7.0-5.17","","","","64,20,83","199.96953903127826,-157.60215072134437,90.79809994790932","-3.49048128745689,123.13229506513169,-178.2013048376736","Probe","","null","1041","422","99,123,187","60","-4","115,119,189","64","0"
"","null","html-keyboard-response","185","255470","0.0-7.0-0.18","<div style=""font-size:60px;"">+</div>","null","","","","","fixation","","","","","","","","","",""
"","null","snap-keyboard-response","186","255572","0.0-7.0-1.18","","null","","21,175,103","-65.11363089143128,199.72590695091478,108.92780700300544","189.10371511986338,10.467191248588765,167.73411358908479","encoding","","","","","","","","","",""
"","null","html-keyboard-response","187","255673","0.0-7.0-2.18","<div style=""font-size:60px;"">+</div>","null","","","","","","delay","","","","","","","","",""
"","null","mask-keyboard-response","188","255876","0.0-7.0-3.18","","null","","21,175,103","-65.11363089143128,199.72590695091478,108.92780700300544","189.10371511986338,10.467191248588765,167.73411358908479","backward_mask","","","","","","","","","",""
"","null","html-keyboard-response","189","257079","0.0-7.0-4.18","<div style=""font-size:60px;"">+</div>","null","","","","","","delay","","","","","","","","",""
"","7164","continuous_report","190","264245","0.0-7.0-5.18","","","","21,175,103","-65.11363089143128,199.72590695091478,108.92780700300544","189.10371511986338,10.467191248588765,167.73411358908479","Probe","","null","845","360","211,84,162","91","-12","236,70,135","103","2"
"","null","html-keyboard-response","191","265246","0.0-7.0-0.19","<div style=""font-size:60px;"">+</div>","null","","","","","fixation","","","","","","","","","",""
"","null","snap-keyboard-response","192","265349","0.0-7.0-1.19","","null","","74,49,132","194.87401295704703,-128.55752193730785,-61.80339887498951","-44.99021086877307,153.20888862379562,-190.2113032590307","encoding","","","","","","","","","",""
"","null","html-keyboard-response","193","265450","0.0-7.0-2.19","<div style=""font-size:60px;"">+</div>","null","","","","","","delay","","","","","","","","",""
"","null","mask-keyboard-response","194","265652","0.0-7.0-3.19","","null","","74,49,132","194.87401295704703,-128.55752193730785,-61.80339887498951","-44.99021086877307,153.20888862379562,-190.2113032590307","backward_mask","","","","","","","","","",""
"","null","html-keyboard-response","195","266853","0.0-7.0-4.19","<div style=""font-size:60px;"">+</div>","null","","","","","","delay","","","","","","","","",""
"","12712","continuous_report","196","279567","0.0-7.0-5.19","","","","74,49,132","194.87401295704703,-128.55752193730785,-61.80339887498951","-44.99021086877307,153.20888862379562,-190.2113032590307","Probe","","null","807","422","79,127,183","55","6","55,131,175","49","1"
"","null","html-keyboard-response","197","280568","0.0-7.0-0.20","<div style=""font-size:60px;"">+</div>","null","","","","","fixation","","","","","","","","","",""
"","null","snap-keyboard-response","198","280671","0.0-7.0-1.20","","null","","172,35,16","-186.71608529944032,159.72710200945858,-17.43114854953165","-71.67358990906008,120.36300463040965,-199.23893961834912","encoding","","","","","","","","","",""
"","null","html-keyboard-response","199","280772","0.0-7.0-2.20","<div style=""font-size:60px;"">+</div>","null","","","","","","delay","","","","","","","","",""
"","null","mask-keyboard-response","200","280975","0.0-7.0-3.20","","null","","172,35,16","-186.71608529944032,159.72710200945858,-17.43114854953165","-71.67358990906008,120.36300463040965,-199.23893961834912","backward_mask","","","","","","","","","",""
"","null","html-keyboard-response","201","282176","0.0-7.0-4.20","<div style=""font-size:60px;"">+</div>","null","","","","","","delay","","","","","","","","",""
"","7603","continuous_report","202","289782","0.0-7.0-5.20","","","","172,35,16","-186.71608529944032,159.72710200945858,-17.43114854953165","-71.67358990906008,120.36300463040965,-199.23893961834912","Probe","","null","808","443","87,125,185","57","22","36,137,147","35","1"
"","null","html-keyboard-response","203","290783","0.0-7.0-0.21","<div style=""font-size:60px;"">+</div>","null","","","","","fixation","","","","","","","","","",""
"","null","snap-keyboard-response","204","290884","0.0-7.0-1.21","","null","","144,102,167","-161.80339887498945,198.5092303282644,114.71528727020923","117.55705045849464,-24.373868681029624,163.83040885779835","encoding","","","","","","","","","",""
"","null","html-keyboard-response","205","290986","0.0-7.0-2.21","<div style=""font-size:60px;"">+</div>","null","","","","","","delay","","","","","","","","",""
"","null","mask-keyboard-response","206","291189","0.0-7.0-3.21","","null","","144,102,167","-161.80339887498945,198.5092303282644,114.71528727020923","117.55705045849464,-24.373868681029624,163.83040885779835","backward_mask","","","","","","","","","",""
"","null","html-keyboard-response","207","292391","0.0-7.0-4.21","<div style=""font-size:60px;"">+</div>","null","","","","","","delay","","","","","","","","",""
"","3982","continuous_report","208","296374","0.0-7.0-5.21","","","","144,102,167","-161.80339887498945,198.5092303282644,114.71528727020923","117.55705045849464,-24.373868681029624,163.83040885779835","Probe","","null","839","303","209,104,43","148","4","217,99,48","144","0"
"","null","html-keyboard-response","209","297376","0.0-7.0-0.22","<div style=""font-size:60px;"">+</div>","null","","","","","fixation","","","","","","","","","",""
"","null","snap-keyboard-response","210","297478","0.0-7.0-1.22","","null","","1,148,37","-103.00761498201084,155.42919229139417,108.92780700300533","171.43346014042245,125.86407820996747,-167.73411358908484","encoding","","","","","","","","","",""
"","null","html-keyboard-response","211","297579","0.0-7.0-2.22","<div style=""font-size:60px;"">+</div>","null","","","","","","delay","","","","","","","","",""
"","null","mask-keyboard-response","212","297782","0.0-7.0-3.22","","null","","1,148,37","-103.00761498201084,155.42919229139417,108.92780700300533","171.43346014042245,125.86407820996747,-167.73411358908484","backward_mask","","","","","","","","","",""
"","null","html-keyboard-response","213","298983","0.0-7.0-4.22","<div style=""font-size:60px;"">+</div>","null","","","","","","delay","","","","","","","","",""
"","3498","continuous_report","214","302483","0.0-7.0-5.22","","","","1,148,37","-103.00761498201084,155.42919229139417,108.92780700300533","171.43346014042245,125.86407820996747,-167.73411358908484","Probe","","null","1054","585","230,89,59","137","-11","209,104,43","148","1"
"","null","html-keyboard-response","215","303484","0.0-7.0-0.23","<div style=""font-size:60px;"">+</div>","null","","","","","fixation","","","","","","","","","",""
"","null","snap-keyboard-response","216","303586","0.0-7.0-1.23","","null","","112,67,162","-192.25233918766372,-58.47434094454741,136.3996720124997","55.12747116339993,-191.26095119260705,146.2707403238341","encoding","","","","","","","","","",""
"","null","html-keyboard-response","217","303687","0.0-7.0-2.23","<div style=""font-size:60px;"">+</div>","null","","","","","","delay","","","","","","","","",""
"","null","mask-keyboard-response","218","303890","0.0-7.0-3.23","","null","","112,67,162","-192.25233918766372,-58.47434094454741,136.3996720124997","55.12747116339993,-191.26095119260705,146.2707403238341","backward_mask","","","","","","","","","",""
"","null","html-keyboard-response","219","305092","0.0-7.0-4.23","<div style=""font-size:60px;"">+</div>","null","","","","","","delay","","","","","","","","",""
"","23342","continuous_report","220","328436","0.0-7.0-5.23","","","","112,67,162","-192.25233918766372,-58.47434094454741,136.3996720124997","55.12747116339993,-191.26095119260705,146.2707403238341","Probe","","null","778","481","183,97,177","82","15","127,116,189","67","1"
"","null","html-keyboard-response","221","329437","0.0-7.0-0.24","<div style=""font-size:60px;"">+</div>","null","","","","","fixation","","","","","","","","","",""
"","null","snap-keyboard-response","222","329539","0.0-7.0-1.24","","null","","41,74,157","84.52365234813992,-199.72590695091478,196.3254366895328","-181.26155740732997,-10.467191248588712,-38.161799075308934","encoding","","","","","","","","","",""
"","null","html-keyboard-response","223","329640","0.0-7.0-2.24","<div style=""font-size:60px;"">+</div>","null","","","","","","delay","","","","","","","","",""
"","null","mask-keyboard-response","224","329843","0.0-7.0-3.24","","null","","41,74,157","84.52365234813992,-199.72590695091478,196.3254366895328","-181.26155740732997,-10.467191248588712,-38.161799075308934","backward_mask","","","","","","","","","",""
"","null","html-keyboard-response","225","331044","0.0-7.0-4.24","<div style=""font-size:60px;"">+</div>","null","","","","","","delay","","","","","","","","",""
"","2959","continuous_report","226","334005","0.0-7.0-5.24","","","","41,74,157","84.52365234813992,-199.72590695091478,196.3254366895328","-181.26155740732997,-10.467191248588712,-38.161799075308934","Probe","","null","757","490","155,108,186","74","0","155,108,186","74","1"
"","null","html-keyboard-response","227","335007","0.0-7.0-0.25","<div style=""font-size:60px;"">+</div>","null","","","","","fixation","","","","","","","","","",""
"","null","snap-keyboard-response","228","335110","0.0-7.0-1.25","","null","","19,174,92","-138.9316740917994,-196.3254366895328,81.34732861516002","143.86796006773028,-38.16179907530895,182.70909152852016","encoding","","","","","","","","","",""
"","null","html-keyboard-response","229","335211","0.0-7.0-2.25","<div style=""font-size:60px;"">+</div>","null","","","","","","delay","","","","","","","","",""
"","null","mask-keyboard-response","230","335413","0.0-7.0-3.25","","null","","19,174,92","-138.9316740917994,-196.3254366895328,81.34732861516002","143.86796006773028,-38.16179907530895,182.70909152852016","backward_mask","","","","","","","","","",""
"","null","html-keyboard-response","231","336616","0.0-7.0-4.25","<div style=""font-size:60px;"">+</div>","null","","","","","","delay","","","","","","","","",""
"","3748","continuous_report","232","340365","0.0-7.0-5.25","","","","19,174,92","-138.9316740917994,-196.3254366895328,81.34732861516002","143.86796006773028,-38.16179907530895,182.70909152852016","Probe","","null","763","352","216,81,158","93","1","213,83,160","92","2"
"","null","html-keyboard-response","233","341367","0.0-7.0-0.26","<div style=""font-size:60px;"">+</div>","null","","","","","fixation","","","","","","","","","",""
"","null","snap-keyboard-response","234","341468","0.0-7.0-1.26","","null","","46,114,92","-20.905692653530668,87.67422935781548,-182.70909152852016","-198.90437907365467,179.7588092598334,81.34732861516008","encoding","","","","","","","","","",""
"","null","html-keyboard-response","235","341570","0.0-7.0-2.26","<div style=""font-size:60px;"">+</div>","null","","","","","","delay","","","","","","","","",""
"","null","mask-keyboard-response","236","341772","0.0-7.0-3.26","","null","","46,114,92","-20.905692653530668,87.67422935781548,-182.70909152852016","-198.90437907365467,179.7588092598334,81.34732861516008","backward_mask","","","","","","","","","",""
"","null","html-keyboard-response","237","342974","0.0-7.0-4.26","<div style=""font-size:60px;"">+</div>","null","","","","","","delay","","","","","","","","",""
"","8226","continuous_report","238","351202","0.0-7.0-5.26","","","","46,114,92","-20.905692653530668,87.67422935781548,-182.70909152852016","-198.90437907365467,179.7588092598334,81.34732861516008","Probe","","null","625","539","180,98,179","81","-11","213,83,160","92","2"
"","null","html-keyboard-response","239","352203","0.0-7.0-0.27","<div style=""font-size:60px;"">+</div>","null","","","","","fixation","","","","","","","","","",""
"","null","snap-keyboard-response","240","352305","0.0-7.0-1.27","","null","","139,97,45","41.58233816355189,199.23893961834912,-193.18516525781365","195.6295201467611,17.431148549531635,51.763809020504205","encoding","","","","","","","","","",""
"","null","html-keyboard-response","241","352407","0.0-7.0-2.27","<div style=""font-size:60px;"">+</div>","null","","","","","","delay","","","","","","","","",""
"","null","mask-keyboard-response","242","352609","0.0-7.0-3.27","","null","","139,97,45","41.58233816355189,199.23893961834912,-193.18516525781365","195.6295201467611,17.431148549531635,51.763809020504205","backward_mask","","","","","","","","","",""
"","null","html-keyboard-response","243","353811","0.0-7.0-4.27","<div style=""font-size:60px;"">+</div>","null","","","","","","delay","","","","","","","","",""
"","2881","continuous_report","244","356693","0.0-7.0-5.27","","","","139,97,45","41.58233816355189,199.23893961834912,-193.18516525781365","195.6295201467611,17.431148549531635,51.763809020504205","Probe","","null","818","192","42,137,143","33","-12","39,133,168","45","2"
"","null","html-keyboard-response","245","357694","0.0-7.0-0.28","<div style=""font-size:60px;"">+</div>","null","","","","","fixation","","","","","","","","","",""
"","null","snap-keyboard-response","246","357796","0.0-7.0-1.28","","null","","62,133,109","184.100970690488,-195.62952014676114,-148.62896509547886","-78.14622569785493,41.58233816355186,-133.82612127177165","encoding","","","","","","","","","",""
"","null","html-keyboard-response","247","357898","0.0-7.0-2.28","<div style=""font-size:60px;"">+</div>","null","","","","","","delay","","","","","","","","",""
"","null","mask-keyboard-response","248","358100","0.0-7.0-3.28","","null","","62,133,109","184.100970690488,-195.62952014676114,-148.62896509547886","-78.14622569785493,41.58233816355186,-133.82612127177165","backward_mask","","","","","","","","","",""
"","null","html-keyboard-response","249","359302","0.0-7.0-4.28","<div style=""font-size:60px;"">+</div>","null","","","","","","delay","","","","","","","","",""
"","3711","continuous_report","250","363015","0.0-7.0-5.28","","","","62,133,109","184.100970690488,-195.62952014676114,-148.62896509547886","-78.14622569785493,41.58233816355186,-133.82612127177165","Probe","","null","706","480","95,124,187","59","-3","107,121,188","62","0"
"","null","html-keyboard-response","251","364017","0.0-7.0-0.29","<div style=""font-size:60px;"">+</div>","null","","","","","fixation","","","","","","","","","",""
"","null","snap-keyboard-response","252","364119","0.0-7.0-1.29","","null","","44,107,167","-169.60961923128522,-61.80339887498947,165.8075145110083","-105.98385284664096,190.21130325903073,-111.83858069414947","encoding","","","","","","","","","",""
"","null","html-keyboard-response","253","364221","0.0-7.0-2.29","<div style=""font-size:60px;"">+</div>","null","","","","","","delay","","","","","","","","",""
"","null","mask-keyboard-response","254","364423","0.0-7.0-3.29","","null","","44,107,167","-169.60961923128522,-61.80339887498947,165.8075145110083","-105.98385284664096,190.21130325903073,-111.83858069414947","backward_mask","","","","","","","","","",""
"","null","html-keyboard-response","255","365624","0.0-7.0-4.29","<div style=""font-size:60px;"">+</div>","null","","","","","","delay","","","","","","","","",""
"","2171","continuous_report","256","367797","0.0-7.0-5.29","","","","44,107,167","-169.60961923128522,-61.80339887498947,165.8075145110083","-105.98385284664096,190.21130325903073,-111.83858069414947","Probe","","null","623","445","91,125,186","58","14","35,134,167","44","0"
"","null","html-keyboard-response","257","368798","0.0-7.0-0.30","<div style=""font-size:60px;"">+</div>","null","","","","","fixation","","","","","","","","","",""
"","null","snap-keyboard-response","258","368900","0.0-7.0-1.30","","null","","60,163,118","131.2118057981014,-148.6289650954788,-120.36300463040965","-150.94191604455446,133.82612127177168,-159.72710200945858","encoding","","","","","","","","","",""
"","null","html-keyboard-response","259","369001","0.0-7.0-2.30","<div style=""font-size:60px;"">+</div>","null","","","","","","delay","","","","","","","","",""
"","null","mask-keyboard-response","260","369204","0.0-7.0-3.30","","null","","60,163,118","131.2118057981014,-148.6289650954788,-120.36300463040965","-150.94191604455446,133.82612127177168,-159.72710200945858","backward_mask","","","","","","","","","",""
"","null","html-keyboard-response","261","370405","0.0-7.0-4.30","<div style=""font-size:60px;"">+</div>","null","","","","","","delay","","","","","","","","",""
"","2970","continuous_report","262","373377","0.0-7.0-5.30","","","","60,163,118","131.2118057981014,-148.6289650954788,-120.36300463040965","-150.94191604455446,133.82612127177168,-159.72710200945858","Probe","","null","992","498","237,69,132","104","-59","173,121,38","163","1"
"","null","html-keyboard-response","263","374378","0.0-7.0-0.31","<div style=""font-size:60px;"">+</div>","null","","","","","fixation","","","","","","","","","",""
"","null","snap-keyboard-response","264","374481","0.0-7.0-1.31","","null","","119,32,159","-20.905692653530668,-108.9278070030054,197.53766811902756","198.90437907365467,-167.7341135890848,31.286893008046174","encoding","","","","","","","","","",""
"","null","html-keyboard-response","265","374582","0.0-7.0-2.31","<div style=""font-size:60px;"">+</div>","null","","","","","","delay","","","","","","","","",""
"","null","mask-keyboard-response","266","374785","0.0-7.0-3.31","","null","","119,32,159","-20.905692653530668,-108.9278070030054,197.53766811902756","198.90437907365467,-167.7341135890848,31.286893008046174","backward_mask","","","","","","","","","",""
"","null","html-keyboard-response","267","375987","0.0-7.0-4.31","<div style=""font-size:60px;"">+</div>","null","","","","","","delay","","","","","","","","",""
"","4735","continuous_report","268","380724","0.0-7.0-5.31","","","","119,32,159","-20.905692653530668,-108.9278070030054,197.53766811902756","198.90437907365467,-167.7341135890848,31.286893008046174","Probe","","null","852","185","176,120,38","162","3","183,117,36","159","2"
"","null","html-keyboard-response","269","381725","0.0-7.0-0.32","<div style=""font-size:60px;"">+</div>","null","","","","","fixation","","","","","","","","","",""
"","null","snap-keyboard-response","270","381827","0.0-7.0-1.32","","null","","36,13,93","-44.99021086877296,-199.87816540381914,58.47434094454735","194.87401295704706,-6.979899340500179,-191.26095119260708","encoding","","","","","","","","","",""
"","null","html-keyboard-response","271","381928","0.0-7.0-2.32","<div style=""font-size:60px;"">+</div>","null","","","","","","delay","","","","","","","","",""
"","null","mask-keyboard-response","272","382131","0.0-7.0-3.32","","null","","36,13,93","-44.99021086877296,-199.87816540381914,58.47434094454735","194.87401295704706,-6.979899340500179,-191.26095119260708","backward_mask","","","","","","","","","",""
"","null","html-keyboard-response","273","383332","0.0-7.0-4.32","<div style=""font-size:60px;"">+</div>","null","","","","","","delay","","","","","","","","",""
"","1845","continuous_report","274","385179","0.0-7.0-5.32","","","","36,13,93","-44.99021086877296,-199.87816540381914,58.47434094454735","194.87401295704706,-6.979899340500179,-191.26095119260708","Probe","","null","770","226","42,137,143","33","20","99,137,93","13","1"
"","null","html-keyboard-response","275","386180","0.0-7.0-0.33","<div style=""font-size:60px;"">+</div>","null","","","","","fixation","","","","","","","","","",""
"","null","snap-keyboard-response","276","386282","0.0-7.0-1.33","","null","","137,36,18","13.951294748825092,-138.9316740917994,87.67422935781548","199.51281005196483,143.86796006773028,-179.7588092598334","encoding","","","","","","","","","",""
"","null","html-keyboard-response","277","386384","0.0-7.0-2.33","<div style=""font-size:60px;"">+</div>","null","","","","","","delay","","","","","","","","",""
"","null","mask-keyboard-response","278","386587","0.0-7.0-3.33","","null","","137,36,18","13.951294748825092,-138.9316740917994,87.67422935781548","199.51281005196483,143.86796006773028,-179.7588092598334","backward_mask","","","","","","","","","",""
"","null","html-keyboard-response","279","387787","0.0-7.0-4.33","<div style=""font-size:60px;"">+</div>","null","","","","","","delay","","","","","","","","",""
"","11835","continuous_report","280","399623","0.0-7.0-5.33","","","","137,36,18","13.951294748825092,-138.9316740917994,87.67422935781548","199.51281005196483,143.86796006773028,-179.7588092598334","Probe","","null","793","460","188,115,36","157","20","230,89,59","137","0"
"","null","html-keyboard-response","281","400625","0.0-7.0-0.34","<div style=""font-size:60px;"">+</div>","null","","","","","fixation","","","","","","","","","",""
"","null","snap-keyboard-response","282","400727","0.0-7.0-1.34","","null","","59,128,157","-143.86796006773022,150.94191604455438,34.72963553338608","-138.93167409179947,-131.21180579810147,196.9615506024416","encoding","","","","","","","","","",""
"","null","html-keyboard-response","283","400828","0.0-7.0-2.34","<div style=""font-size:60px;"">+</div>","null","","","","","","delay","","","","","","","","",""
"","null","mask-keyboard-response","284","401030","0.0-7.0-3.34","","null","","59,128,157","-143.86796006773022,150.94191604455438,34.72963553338608","-138.93167409179947,-131.21180579810147,196.9615506024416","backward_mask","","","","","","","","","",""
"","null","html-keyboard-response","285","402231","0.0-7.0-4.34","<div style=""font-size:60px;"">+</div>","null","","","","","","delay","","","","","","","","",""
"","5175","continuous_report","286","407408","0.0-7.0-5.34","","","","59,128,157","-143.86796006773022,150.94191604455438,34.72963553338608","-138.93167409179947,-131.21180579810147,196.9615506024416","Probe","","null","830","523","70,128,181","53","-6","95,124,187","59","0"
"","null","html-keyboard-response","287","408409","0.0-7.0-0.35","<div style=""font-size:60px;"">+</div>","null","","","","","fixation","","","","","","","","","",""
"","null","snap-keyboard-response","288","408511","0.0-7.0-1.35","","null","","109,134,13","-187.93852415718166,199.96953903127826,125.86407820996752","68.40402866513378,-3.49048128745689,155.42919229139414","encoding","","","","","","","","","",""
"","null","html-keyboard-response","289","408613","0.0-7.0-2.35","<div style=""font-size:60px;"">+</div>","null","","","","","","delay","","","","","","","","",""
"","null","mask-keyboard-response","290","408816","0.0-7.0-3.35","","null","","109,134,13","-187.93852415718166,199.96953903127826,125.86407820996752","68.40402866513378,-3.49048128745689,155.42919229139414","backward_mask","","","","","","","","","",""
"","null","html-keyboard-response","291","410018","0.0-7.0-4.35","<div style=""font-size:60px;"">+</div>","null","","","","","","delay","","","","","","","","",""
"","3216","continuous_report","292","413235","0.0-7.0-5.35","","","","109,134,13","-187.93852415718166,199.96953903127826,125.86407820996752","68.40402866513378,-3.49048128745689,155.42919229139414","Probe","","null","916","446","42,137,143","33","-101","234,85,64","134","1"
"","null","html-keyboard-response","293","414235","0.0-7.0-0.36","<div style=""font-size:60px;"">+</div>","null","","","","","fixation","","","","","","","","","",""
"","null","snap-keyboard-response","294","414337","0.0-7.0-1.36","","null","","82,1,38","174.92394142787916,-153.20888862379562,-196.96155060244163","-96.96192404926737,-128.55752193730785,34.72963553338605","encoding","","","","","","","","","",""
"","null","html-keyboard-response","295","414439","0.0-7.0-2.36","<div style=""font-size:60px;"">+</div>","null","","","","","","delay","","","","","","","","",""
"","null","mask-keyboard-response","296","414642","0.0-7.0-3.36","","null","","82,1,38","174.92394142787916,-153.20888862379562,-196.96155060244163","-96.96192404926737,-128.55752193730785,34.72963553338605","backward_mask","","","","","","","","","",""
"","null","html-keyboard-response","297","415843","0.0-7.0-4.36","<div style=""font-size:60px;"">+</div>","null","","","","","","delay","","","","","","","","",""
"","1597","continuous_report","298","417443","0.0-7.0-5.36","","","","82,1,38","174.92394142787916,-153.20888862379562,-196.96155060244163","-96.96192404926737,-128.55752193730785,34.72963553338605","Probe","","null","688","264","42,137,143","33","32","129,133,66","1","1"
"","null","html-keyboard-response","299","418443","0.0-7.0-0.37","<div style=""font-size:60px;"">+</div>","null","","","","","fixation","","","","","","","","","",""
"","null","snap-keyboard-response","300","418545","0.0-7.0-1.37","","null","","156,73,51","176.5895185717854,20.9056926535306,-103.00761498201084","-93.89431255717817,-198.90437907365467,171.43346014042245","encoding","","","","","","","","","",""
"","null","html-keyboard-response","301","418646","0.0-7.0-2.37","<div style=""font-size:60px;"">+</div>","null","","","","","","delay","","","","","","","","",""
"","null","mask-keyboard-response","302","418849","0.0-7.0-3.37","","null","","156,73,51","176.5895185717854,20.9056926535306,-103.00761498201084","-93.89431255717817,-198.90437907365467,171.43346014042245","backward_mask","","","","","","","","","",""
"","null","html-keyboard-response","303","420051","0.0-7.0-4.37","<div style=""font-size:60px;"">+</div>","null","","","","","","delay","","","","","","","","",""
"","2509","continuous_report","304","422561","0.0-7.0-5.37","","","","156,73,51","176.5895185717854,20.9056926535306,-103.00761498201084","-93.89431255717817,-198.90437907365467,171.43346014042245","Probe","","null","918","577","107,121,188","62","11","62,130,178","51","2"
"","null","html-keyboard-response","305","423563","0.0-7.0-0.38","<div style=""font-size:60px;"">+</div>","null","","","","","fixation","","","","","","","","","",""
"","null","snap-keyboard-response","306","423665","0.0-7.0-1.38","","null","","58,134,1","-169.6096192312852,-189.10371511986335,-13.951294748825116","105.98385284664099,-65.11363089143136,-199.51281005196483","encoding","","","","","","","","","",""
"","null","html-keyboard-response","307","423766","0.0-7.0-2.38","<div style=""font-size:60px;"">+</div>","null","","","","","","delay","","","","","","","","",""
"","null","mask-keyboard-response","308","423968","0.0-7.0-3.38","","null","","58,134,1","-169.6096192312852,-189.10371511986335,-13.951294748825116","105.98385284664099,-65.11363089143136,-199.51281005196483","backward_mask","","","","","","","","","",""
"","null","html-keyboard-response","309","425169","0.0-7.0-4.38","<div style=""font-size:60px;"">+</div>","null","","","","","","delay","","","","","","","","",""
"","2373","continuous_report","310","427545","0.0-7.0-5.38","","","","58,134,1","-169.6096192312852,-189.10371511986335,-13.951294748825116","105.98385284664099,-65.11363089143136,-199.51281005196483","Probe","","null","584","388","188,115,36","157","99","91,125,186","58","0"
"","null","html-keyboard-response","311","428547","0.0-7.0-0.39","<div style=""font-size:60px;"">+</div>","null","","","","","fixation","","","","","","","","","",""
"","null","snap-keyboard-response","312","428649","0.0-7.0-1.39","","null","","50,160,88","51.76380902050415,120.36300463040959,-187.9385241571817","193.18516525781365,-159.72710200945863,-68.40402866513374","encoding","","","","","","","","","",""
"","null","html-keyboard-response","313","428751","0.0-7.0-2.39","<div style=""font-size:60px;"">+</div>","null","","","","","","delay","","","","","","","","",""
"","null","mask-keyboard-response","314","428953","0.0-7.0-3.39","","null","","50,160,88","51.76380902050415,120.36300463040959,-187.9385241571817","193.18516525781365,-159.72710200945863,-68.40402866513374","backward_mask","","","","","","","","","",""
"","null","html-keyboard-response","315","430154","0.0-7.0-4.39","<div style=""font-size:60px;"">+</div>","null","","","","","","delay","","","","","","","","",""
"","4330","continuous_report","316","434486","0.0-7.0-5.39","","","","50,160,88","51.76380902050415,120.36300463040959,-187.9385241571817","193.18516525781365,-159.72710200945863,-68.40402866513374","Probe","","null","562","494","246,66,106","115","27","202,88,168","88","2"
"","null","html-keyboard-response","317","435487","0.0-7.0-0.40","<div style=""font-size:60px;"">+</div>","null","","","","","fixation","","","","","","","","","",""
"","null","snap-keyboard-response","318","435589","0.0-7.0-1.40","","null","","147,91,169","-198.90437907365467,-68.40402866513386,199.23893961834912","-20.90569265353061,-187.93852415718163,-17.431148549531663","encoding","","","","","","","","","",""
"","null","html-keyboard-response","319","435691","0.0-7.0-2.40","<div style=""font-size:60px;"">+</div>","null","","","","","","delay","","","","","","","","",""
"","null","mask-keyboard-response","320","435894","0.0-7.0-3.40","","null","","147,91,169","-198.90437907365467,-68.40402866513386,199.23893961834912","-20.90569265353061,-187.93852415718163,-17.431148549531663","backward_mask","","","","","","","","","",""
"","null","html-keyboard-response","321","437096","0.0-7.0-4.40","<div style=""font-size:60px;"">+</div>","null","","","","","","delay","","","","","","","","",""
"","4442","continuous_report","322","441539","0.0-7.0-5.40","","","","147,91,169","-198.90437907365467,-68.40402866513386,199.23893961834912","-20.90569265353061,-187.93852415718163,-17.431148549531663","Probe","","null","1024","241","246,67,98","118","-51","159,126,45","169","2"
"","null","html-keyboard-response","323","442541","0.0-7.0-0.41","<div style=""font-size:60px;"">+</div>","null","","","","","fixation","","","","","","","","","",""
"","null","snap-keyboard-response","324","442643","0.0-7.0-1.41","","null","","124,8,167","-17.43114854953165,133.82612127177168,-10.467191248588724","-199.23893961834912,148.62896509547883,199.72590695091478","encoding","","","","","","","","","",""
"","null","html-keyboard-response","325","442744","0.0-7.0-2.41","<div style=""font-size:60px;"">+</div>","null","","","","","","delay","","","","","","","","",""
"","null","mask-keyboard-response","326","442946","0.0-7.0-3.41","","null","","124,8,167","-17.43114854953165,133.82612127177168,-10.467191248588724","-199.23893961834912,148.62896509547883,199.72590695091478","backward_mask","","","","","","","","","",""
"","null","html-keyboard-response","327","444147","0.0-7.0-4.41","<div style=""font-size:60px;"">+</div>","null","","","","","","delay","","","","","","","","",""
"","2002","continuous_report","328","446152","0.0-7.0-5.41","","","","124,8,167","-17.43114854953165,133.82612127177168,-10.467191248588724","-199.23893961834912,148.62896509547883,199.72590695091478","Probe","","null","620","702","94,138,98","15","7","111,136,81","8","1"
"","null","html-keyboard-response","329","447154","0.0-7.0-0.42","<div style=""font-size:60px;"">+</div>","null","","","","","fixation","","","","","","","","","",""
"","null","snap-keyboard-response","330","447256","0.0-7.0-1.42","","null","","20,105,78","-120.36300463040968,199.23893961834912,-38.16179907530909","159.72710200945858,17.431148549531635,-196.32543668953278","encoding","","","","","","","","","",""
"","null","html-keyboard-response","331","447357","0.0-7.0-2.42","<div style=""font-size:60px;"">+</div>","null","","","","","","delay","","","","","","","","",""
"","null","mask-keyboard-response","332","447560","0.0-7.0-3.42","","null","","20,105,78","-120.36300463040968,199.23893961834912,-38.16179907530909","159.72710200945858,17.431148549531635,-196.32543668953278","backward_mask","","","","","","","","","",""
"","null","html-keyboard-response","333","448761","0.0-7.0-4.42","<div style=""font-size:60px;"">+</div>","null","","","","","","delay","","","","","","","","",""
"","5478","continuous_report","334","454240","0.0-7.0-5.42","","","","20,105,78","-120.36300463040968,199.23893961834912,-38.16179907530909","159.72710200945858,17.431148549531635,-196.32543668953278","Probe","","null","958","376","70,138,120","24","4","81,138,110","20","0"
"","null","html-keyboard-response","335","455241","0.0-7.0-0.43","<div style=""font-size:60px;"">+</div>","null","","","","","fixation","","","","","","","","","",""
"","null","snap-keyboard-response","336","455343","0.0-7.0-1.43","","null","","100,14,43","-191.26095119260708,-44.99021086877296,65.11363089143126","58.4743409445474,194.87401295704706,-189.10371511986338","encoding","","","","","","","","","",""
"","null","html-keyboard-response","337","455444","0.0-7.0-2.43","<div style=""font-size:60px;"">+</div>","null","","","","","","delay","","","","","","","","",""
"","null","mask-keyboard-response","338","455647","0.0-7.0-3.43","","null","","100,14,43","-191.26095119260708,-44.99021086877296,65.11363089143126","58.4743409445474,194.87401295704706,-189.10371511986338","backward_mask","","","","","","","","","",""
"","null","html-keyboard-response","339","456849","0.0-7.0-4.43","<div style=""font-size:60px;"">+</div>","null","","","","","","delay","","","","","","","","",""
"","1473","continuous_report","340","458324","0.0-7.0-5.43","","","","100,14,43","-191.26095119260708,-44.99021086877296,65.11363089143126","58.4743409445474,194.87401295704706,-189.10371511986338","Probe","","null","832","204","25,135,161","41","-2","32,134,165","43","2"
"","null","html-keyboard-response","341","459325","0.0-7.0-0.44","<div style=""font-size:60px;"">+</div>","null","","","","","fixation","","","","","","","","","",""
"","null","snap-keyboard-response","342","459426","0.0-7.0-1.44","","null","","141,173,45","178.20130483767355,-194.0591452551993,-3.490481287456695","-90.79809994790939,-48.3843791199335,199.96953903127826","encoding","","","","","","","","","",""
"","null","html-keyboard-response","343","459527","0.0-7.0-2.44","<div style=""font-size:60px;"">+</div>","null","","","","","","delay","","","","","","","","",""
"","null","mask-keyboard-response","344","459730","0.0-7.0-3.44","","null","","141,173,45","178.20130483767355,-194.0591452551993,-3.490481287456695","-90.79809994790939,-48.3843791199335,199.96953903127826","backward_mask","","","","","","","","","",""
"","null","html-keyboard-response","345","460931","0.0-7.0-4.44","<div style=""font-size:60px;"">+</div>","null","","","","","","delay","","","","","","","","",""
"","2837","continuous_report","346","463771","0.0-7.0-5.44","","","","141,173,45","178.20130483767355,-194.0591452551993,-3.490481287456695","-90.79809994790939,-48.3843791199335,199.96953903127826","Probe","","null","779","239","176,120,38","162","-11","149,129,51","173","1"
"","null","html-keyboard-response","347","464773","0.0-7.0-0.45","<div style=""font-size:60px;"">+</div>","null","","","","","fixation","","","","","","","","","",""
"","null","snap-keyboard-response","348","464876","0.0-7.0-1.45","","null","","151,132,21","-196.3254366895328,96.96192404926744,173.20508075688767","38.16179907530899,174.92394142787916,-100.00000000000009","encoding","","","","","","","","","",""
"","null","html-keyboard-response","349","464977","0.0-7.0-2.45","<div style=""font-size:60px;"">+</div>","null","","","","","","delay","","","","","","","","",""
"","null","mask-keyboard-response","350","465180","0.0-7.0-3.45","","null","","151,132,21","-196.3254366895328,96.96192404926744,173.20508075688767","38.16179907530899,174.92394142787916,-100.00000000000009","backward_mask","","","","","","","","","",""
"","null","html-keyboard-response","351","466382","0.0-7.0-4.45","<div style=""font-size:60px;"">+</div>","null","","","","","","delay","","","","","","","","",""
"","3798","continuous_report","352","470181","0.0-7.0-5.45","","","","151,132,21","-196.3254366895328,96.96192404926744,173.20508075688767","38.16179907530899,174.92394142787916,-100.00000000000009","Probe","","null","880","538","229,74,144","99","-33","237,82,68","132","1"
"","null","html-keyboard-response","353","471183","0.0-7.0-0.46","<div style=""font-size:60px;"">+</div>","null","","","","","fixation","","","","","","","","","",""
"","null","snap-keyboard-response","354","471286","0.0-7.0-1.46","","null","","111,147,79","71.67358990905991,-161.80339887498948,181.26155740732997","-186.7160852994404,-117.5570504584946,84.52365234813989","encoding","","","","","","","","","",""
"","null","html-keyboard-response","355","471387","0.0-7.0-2.46","<div style=""font-size:60px;"">+</div>","null","","","","","","delay","","","","","","","","",""
"","null","mask-keyboard-response","356","471590","0.0-7.0-3.46","","null","","111,147,79","71.67358990905991,-161.80339887498948,181.26155740732997","-186.7160852994404,-117.5570504584946,84.52365234813989","backward_mask","","","","","","","","","",""
"","null","html-keyboard-response","357","472792","0.0-7.0-4.46","<div style=""font-size:60px;"">+</div>","null","","","","","","delay","","","","","","","","",""
"","3867","continuous_report","358","476661","0.0-7.0-5.46","","","","111,147,79","71.67358990905991,-161.80339887498948,181.26155740732997","-186.7160852994404,-117.5570504584946,84.52365234813989","Probe","","null","986","481","244,66,118","110","31","173,101,181","79","2"
"","null","html-keyboard-response","359","477663","0.0-7.0-0.47","<div style=""font-size:60px;"">+</div>","null","","","","","fixation","","","","","","","","","",""
"","null","snap-keyboard-response","360","477764","0.0-7.0-1.47","","null","","158,65,26","-90.79809994790935,128.55752193730785,90.79809994790936","178.20130483767358,-153.20888862379562,178.20130483767355","encoding","","","","","","","","","",""
"","null","html-keyboard-response","361","477866","0.0-7.0-2.47","<div style=""font-size:60px;"">+</div>","null","","","","","","delay","","","","","","","","",""
"","null","mask-keyboard-response","362","478070","0.0-7.0-3.47","","null","","158,65,26","-90.79809994790935,128.55752193730785,90.79809994790936","178.20130483767358,-153.20888862379562,178.20130483767355","backward_mask","","","","","","","","","",""
"","null","html-keyboard-response","363","479271","0.0-7.0-4.47","<div style=""font-size:60px;"">+</div>","null","","","","","","delay","","","","","","","","",""
"","5028","continuous_report","364","484302","0.0-7.0-5.47","","","","158,65,26","-90.79809994790935,128.55752193730785,90.79809994790936","178.20130483767358,-153.20888862379562,178.20130483767355","Probe","","null","818","478","221,79,154","95","30","119,118,189","65","1"
"","null","html-keyboard-response","365","485303","0.0-7.0-0.48","<div style=""font-size:60px;"">+</div>","null","","","","","fixation","","","","","","","","","",""
"","null","snap-keyboard-response","366","485406","0.0-7.0-1.48","","null","","70,125,27","34.729635533385995,192.25233918766378,-161.80339887498945","-196.96155060244163,55.12747116339983,117.55705045849464","encoding","","","","","","","","","",""
"","null","html-keyboard-response","367","485507","0.0-7.0-2.48","<div style=""font-size:60px;"">+</div>","null","","","","","","delay","","","","","","","","",""
"","null","mask-keyboard-response","368","485710","0.0-7.0-3.48","","null","","70,125,27","34.729635533385995,192.25233918766378,-161.80339887498945","-196.96155060244163,55.12747116339983,117.55705045849464","backward_mask","","","","","","","","","",""
"","null","html-keyboard-response","369","486911","0.0-7.0-4.48","<div style=""font-size:60px;"">+</div>","null","","","","","","delay","","","","","","","","",""
"","3991","continuous_report","370","490903","0.0-7.0-5.48","","","","70,125,27","34.729635533385995,192.25233918766378,-161.80339887498945","-196.96155060244163,55.12747116339983,117.55705045849464","Probe","","null","845","232","72,138,118","23","-4","61,138,128","27","2"
"","null","html-keyboard-response","371","491904","0.0-7.0-0.49","<div style=""font-size:60px;"">+</div>","null","","","","","fixation","","","","","","","","","",""
"","null","snap-keyboard-response","372","492007","0.0-7.0-1.49","","null","","78,100,25","-165.80751451100838,133.82612127177157,-71.67358990906006","-111.83858069414934,-148.62896509547895,186.71608529944035","encoding","","","","","","","","","",""
"","null","html-keyboard-response","373","492107","0.0-7.0-2.49","<div style=""font-size:60px;"">+</div>","null","","","","","","delay","","","","","","","","",""
"","null","mask-keyboard-response","374","492309","0.0-7.0-3.49","","null","","78,100,25","-165.80751451100838,133.82612127177157,-71.67358990906006","-111.83858069414934,-148.62896509547895,186.71608529944035","backward_mask","","","","","","","","","",""
"","null","html-keyboard-response","375","493511","0.0-7.0-4.49","<div style=""font-size:60px;"">+</div>","null","","","","","","delay","","","","","","","","",""
"","4478","continuous_report","376","497990","0.0-7.0-5.49","","","","78,100,25","-165.80751451100838,133.82612127177157,-71.67358990906006","-111.83858069414934,-148.62896509547895,186.71608529944035","Probe","","null","727","403","59,130,177","50","25","67,138,123","25","2"
"","null","html-keyboard-response","377","498991","0.0-7.0-0.50","<div style=""font-size:60px;"">+</div>","null","","","","","fixation","","","","","","","","","",""
"","null","snap-keyboard-response","378","499093","0.0-7.0-1.50","","null","","12,77,111","-24.373868681029435,-193.18516525781368,184.10097069048808","-198.5092303282644,-51.76380902050407,78.14622569785475","encoding","","","","","","","","","",""
"","null","html-keyboard-response","379","499193","0.0-7.0-2.50","<div style=""font-size:60px;"">+</div>","null","","","","","","delay","","","","","","","","",""
"","null","mask-keyboard-response","380","499395","0.0-7.0-3.50","","null","","12,77,111","-24.373868681029435,-193.18516525781368,184.10097069048808","-198.5092303282644,-51.76380902050407,78.14622569785475","backward_mask","","","","","","","","","",""
"","null","html-keyboard-response","381","500597","0.0-7.0-4.50","<div style=""font-size:60px;"">+</div>","null","","","","","","delay","","","","","","","","",""
"","3533","continuous_report","382","504133","0.0-7.0-5.50","","","","12,77,111","-24.373868681029435,-193.18516525781368,184.10097069048808","-198.5092303282644,-51.76380902050407,78.14622569785475","Probe","","null","511","401","190,94,175","84","7","166,104,184","77","1"
"","null","html-keyboard-response","383","505134","0.0-7.0-0.51","<div style=""font-size:60px;"">+</div>","null","","","","","fixation","","","","","","","","","",""
"","null","snap-keyboard-response","384","505236","0.0-7.0-1.51","","null","","135,75,2","167.7341135890848,-186.71608529944032,81.34732861516002","-108.9278070030054,-71.67358990906008,182.70909152852016","encoding","","","","","","","","","",""
"","null","html-keyboard-response","385","505338","0.0-7.0-2.51","<div style=""font-size:60px;"">+</div>","null","","","","","","delay","","","","","","","","",""
"","null","mask-keyboard-response","386","505540","0.0-7.0-3.51","","null","","135,75,2","167.7341135890848,-186.71608529944032,81.34732861516002","-108.9278070030054,-71.67358990906008,182.70909152852016","backward_mask","","","","","","","","","",""
"","null","html-keyboard-response","387","506742","0.0-7.0-4.51","<div style=""font-size:60px;"">+</div>","null","","","","","","delay","","","","","","","","",""
"","5174","continuous_report","388","511918","0.0-7.0-5.51","","","","135,75,2","167.7341135890848,-186.71608529944032,81.34732861516002","-108.9278070030054,-71.67358990906008,182.70909152852016","Probe","","null","689","515","166,104,184","77","2","158,106,185","75","1"
"","null","html-keyboard-response","389","512920","0.0-7.0-0.52","<div style=""font-size:60px;"">+</div>","null","","","","","fixation","","","","","","","","","",""
"","null","snap-keyboard-response","390","513023","0.0-7.0-1.52","","null","","65,3,131","-48.38437911993356,-44.99021086877296,186.71608529944035","-194.0591452551993,194.87401295704706,71.67358990906006","encoding","","","","","","","","","",""
"","null","html-keyboard-response","391","513124","0.0-7.0-2.52","<div style=""font-size:60px;"">+</div>","null","","","","","","delay","","","","","","","","",""
"","null","mask-keyboard-response","392","513327","0.0-7.0-3.52","","null","","65,3,131","-48.38437911993356,-44.99021086877296,186.71608529944035","-194.0591452551993,194.87401295704706,71.67358990906006","backward_mask","","","","","","","","","",""
"","null","html-keyboard-response","393","514529","0.0-7.0-4.52","<div style=""font-size:60px;"">+</div>","null","","","","","","delay","","","","","","","","",""
"","1853","continuous_report","394","516383","0.0-7.0-5.52","","","","65,3,131","-48.38437911993356,-44.99021086877296,186.71608529944035","-194.0591452551993,194.87401295704706,71.67358990906006","Probe","","null","1087","499","239,80,72","130","-1","238,81,70","131","2"
"","null","html-keyboard-response","395","517385","0.0-7.0-0.53","<div style=""font-size:60px;"">+</div>","null","","","","","fixation","","","","","","","","","",""
"","null","snap-keyboard-response","396","517487","0.0-7.0-1.53","","null","","13,90,41","111.83858069414939,-96.96192404926737,-61.80339887498947","165.80751451100832,-174.92394142787916,190.21130325903073","encoding","","","","","","","","","",""
"","null","html-keyboard-response","397","517589","0.0-7.0-2.53","<div style=""font-size:60px;"">+</div>","null","","","","","","delay","","","","","","","","",""
"","null","mask-keyboard-response","398","517790","0.0-7.0-3.53","","null","","13,90,41","111.83858069414939,-96.96192404926737,-61.80339887498947","165.80751451100832,-174.92394142787916,190.21130325903073","backward_mask","","","","","","","","","",""
"","null","html-keyboard-response","399","518992","0.0-7.0-4.53","<div style=""font-size:60px;"">+</div>","null","","","","","","delay","","","","","","","","",""
"","8471","continuous_report","400","527465","0.0-7.0-5.53","","","","13,90,41","111.83858069414939,-96.96192404926737,-61.80339887498947","165.80751451100832,-174.92394142787916,190.21130325903073","Probe","","null","886","365","227,75,147","98","8","208,86,164","90","1"
"","null","html-keyboard-response","401","528466","0.0-7.0-0.54","<div style=""font-size:60px;"">+</div>","null","","","","","fixation","","","","","","","","","",""
"","null","snap-keyboard-response","402","528569","0.0-7.0-1.54","","null","","52,111,168","-143.86796006773025,90.79809994790932,197.53766811902753","138.93167409179944,-178.2013048376736,-31.286893008046224","encoding","","","","","","","","","",""
"","null","html-keyboard-response","403","528670","0.0-7.0-2.54","<div style=""font-size:60px;"">+</div>","null","","","","","","delay","","","","","","","","",""
"","null","mask-keyboard-response","404","528873","0.0-7.0-3.54","","null","","52,111,168","-143.86796006773025,90.79809994790932,197.53766811902753","138.93167409179944,-178.2013048376736,-31.286893008046224","backward_mask","","","","","","","","","",""
"","null","html-keyboard-response","405","530075","0.0-7.0-4.54","<div style=""font-size:60px;"">+</div>","null","","","","","","delay","","","","","","","","",""
"","3261","continuous_report","406","533337","0.0-7.0-5.54","","","","52,111,168","-143.86796006773025,90.79809994790932,197.53766811902753","138.93167409179944,-178.2013048376736,-31.286893008046224","Probe","","null","476","546","227,75,147","98","-13","244,65,115","111","1"
"","null","html-keyboard-response","407","534339","0.0-7.0-0.55","<div style=""font-size:60px;"">+</div>","null","","","","","fixation","","","","","","","","","",""
"","null","snap-keyboard-response","408","534440","0.0-7.0-1.55","","null","","66,123,45","-24.373868681029435,10.467191248588794,-199.96953903127826","-198.5092303282644,199.72590695091478,3.490481287456687","encoding","","","","","","","","","",""
"","null","html-keyboard-response","409","534542","0.0-7.0-2.55","<div style=""font-size:60px;"">+</div>","null","","","","","","delay","","","","","","","","",""
"","null","mask-keyboard-response","410","534744","0.0-7.0-3.55","","null","","66,123,45","-24.373868681029435,10.467191248588794,-199.96953903127826","-198.5092303282644,199.72590695091478,3.490481287456687","backward_mask","","","","","","","","","",""
"","null","html-keyboard-response","411","535946","0.0-7.0-4.55","<div style=""font-size:60px;"">+</div>","null","","","","","","delay","","","","","","","","",""
"","6389","continuous_report","412","542338","0.0-7.0-5.55","","","","66,123,45","-24.373868681029435,10.467191248588794,-199.96953903127826","-198.5092303282644,199.72590695091478,3.490481287456687","Probe","","null","827","516","66,129,179","52","7","39,133,168","45","2"
"","null","html-keyboard-response","413","543339","0.0-7.0-0.56","<div style=""font-size:60px;"">+</div>","null","","","","","fixation","","","","","","","","","",""
"","null","snap-keyboard-response","414","543442","0.0-7.0-1.56","","null","","86,37,105","-111.83858069414934,167.7341135890848,178.20130483767358","165.80751451100838,-108.9278070030054,90.79809994790935","encoding","","","","","","","","","",""
"","null","html-keyboard-response","415","543543","0.0-7.0-2.56","<div style=""font-size:60px;"">+</div>","null","","","","","","delay","","","","","","","","",""
"","null","mask-keyboard-response","416","543746","0.0-7.0-3.56","","null","","86,37,105","-111.83858069414934,167.7341135890848,178.20130483767358","165.80751451100838,-108.9278070030054,90.79809994790935","backward_mask","","","","","","","","","",""
"","null","html-keyboard-response","417","544948","0.0-7.0-4.56","<div style=""font-size:60px;"">+</div>","null","","","","","","delay","","","","","","","","",""
"","8457","continuous_report","418","553407","0.0-7.0-5.56","","","","86,37,105","-111.83858069414934,167.7341135890848,178.20130483767358","165.80751451100838,-108.9278070030054,90.79809994790935","Probe","","null","714","420","223,77,151","96","59","29,136,152","37","1"
"","null","html-keyboard-response","419","554408","0.0-7.0-0.57","<div style=""font-size:60px;"">+</div>","null","","","","","fixation","","","","","","","","","",""
"","null","snap-keyboard-response","420","554511","0.0-7.0-1.57","","null","","70,90,53","155.42919229139417,-146.2707403238341,-44.990210868773055","125.86407820996747,136.3996720124997,-194.87401295704703","encoding","","","","","","","","","",""
"","null","html-keyboard-response","421","554612","0.0-7.0-2.57","<div style=""font-size:60px;"">+</div>","null","","","","","","delay","","","","","","","","",""
"","null","mask-keyboard-response","422","554815","0.0-7.0-3.57","","null","","70,90,53","155.42919229139417,-146.2707403238341,-44.990210868773055","125.86407820996747,136.3996720124997,-194.87401295704703","backward_mask","","","","","","","","","",""
"","null","html-keyboard-response","423","556017","0.0-7.0-4.57","<div style=""font-size:60px;"">+</div>","null","","","","","","delay","","","","","","","","",""
"","1843","continuous_report","424","557861","0.0-7.0-5.57","","","","70,90,53","155.42919229139417,-146.2707403238341,-44.990210868773055","125.86407820996747,136.3996720124997,-194.87401295704703","Probe","","null","573","550","226,92,56","139","49","208,86,164","90","1"
"","null","html-keyboard-response","425","558862","0.0-7.0-0.58","<div style=""font-size:60px;"">+</div>","null","","","","","fixation","","","","","","","","","",""
"","null","snap-keyboard-response","426","558964","0.0-7.0-1.58","","null","","149,71,22","146.27074032383413,133.82612127177168,-141.42135623730948","-136.39967201249965,148.62896509547883,141.4213562373095","encoding","","","","","","","","","",""
"","null","html-keyboard-response","427","559066","0.0-7.0-2.58","<div style=""font-size:60px;"">+</div>","null","","","","","","delay","","","","","","","","",""
"","null","mask-keyboard-response","428","559269","0.0-7.0-3.58","","null","","149,71,22","146.27074032383413,133.82612127177168,-141.42135623730948","-136.39967201249965,148.62896509547883,141.4213562373095","backward_mask","","","","","","","","","",""
"","null","html-keyboard-response","429","560470","0.0-7.0-4.58","<div style=""font-size:60px;"">+</div>","null","","","","","","delay","","","","","","","","",""
"","2126","continuous_report","430","562599","0.0-7.0-5.58","","","","149,71,22","146.27074032383413,133.82612127177168,-141.42135623730948","-136.39967201249965,148.62896509547883,141.4213562373095","Probe","","null","1109","252","190,114,36","156","7","206,105,41","149","0"
"","null","html-keyboard-response","431","563599","0.0-7.0-0.59","<div style=""font-size:60px;"">+</div>","null","","","","","fixation","","","","","","","","","",""
"","null","snap-keyboard-response","432","563702","0.0-7.0-1.59","","null","","145,9,112","179.7588092598334,-111.83858069414934,58.47434094454735","87.67422935781548,165.80751451100838,191.26095119260708","encoding","","","","","","","","","",""
"","null","html-keyboard-response","433","563804","0.0-7.0-2.59","<div style=""font-size:60px;"">+</div>","null","","","","","","delay","","","","","","","","",""
"","null","mask-keyboard-response","434","564006","0.0-7.0-3.59","","null","","145,9,112","179.7588092598334,-111.83858069414934,58.47434094454735","87.67422935781548,165.80751451100838,191.26095119260708","backward_mask","","","","","","","","","",""
"","null","html-keyboard-response","435","565207","0.0-7.0-4.59","<div style=""font-size:60px;"">+</div>","null","","","","","","delay","","","","","","","","",""
"","3644","continuous_report","436","568853","0.0-7.0-5.59","","","","145,9,112","179.7588092598334,-111.83858069414934,58.47434094454735","87.67422935781548,165.80751451100838,191.26095119260708","Probe","","null","818","260","178,119,37","161","49","245,65,113","112","2"
"[{""page_index"":0,""viewing_time"":10695}]","10696","instructions","437","579549","0.0-8.0","","","","","","","","","","","","","","","","",""
