"view_history","rt","trial_type","trial_index","time_elapsed","internal_node_id","stimulus","key_press","prac_part","colIndex","allLocX","allLocY","test_part","mainExp_part","condType","xClicked","yClicked","responseCol","responseInd","responseError","correctCol","correctColIndex","probLocIndex"
"[{""page_index"":0,""viewing_time"":79186}]","79188","instructions","0","79188","0.0-0.0","","","","","","","","","","","","","","","","",""
"[{""page_index"":0,""viewing_time"":3169}]","3169","instructions","1","82357","0.0-1.0","","","","","","","","","","","","","","","","",""
"","null","html-keyboard-response","2","83358","0.0-2.0-0.0","<div style=""font-size:60px;"">+</div>","null","fixation","","","","","","","","","","","","","",""
"","null","snap-keyboard-response","3","85364","0.0-2.0-1.0","1","null","","45,171,144","148.62896509547886,-24.373868681029435,196.96155060244158","133.82612127177165,-198.5092303282644,-34.72963553338626","encoding","","","","","","","","","",""
"","null","html-keyboard-response","4","85465","0.0-2.0-2.0","<div style=""font-size:60px;"">+</div>","null","","","","","","delay","","","","","","","","",""
"","null","mask-keyboard-response","5","85470","0.0-2.0-3.0","1","null","","45,171,144","148.62896509547886,-24.373868681029435,196.96155060244158","133.82612127177165,-198.5092303282644,-34.72963553338626","backward_mask","","","","","","","","","",""
"","null","html-keyboard-response","6","95172","0.0-2.0-4.0","<div style=""font-size:60px;"">+</div>","null","","","","","","delay","","","","","","","","",""
"","3708","continuous_report","7","98883","0.0-2.0-5.0","1","","","45,171,144","148.62896509547886,-24.373868681029435,196.96155060244158","133.82612127177165,-198.5092303282644,-34.72963553338626","Probe","","null","720","557","52,138,135","30","-15","39,133,168","45","0"
"[{""page_index"":0,""viewing_time"":2531}]","2531","instructions","8","101415","0.0-3.0","","","","","","","","","","","","","","","","",""
"","null","html-keyboard-response","9","102416","0.0-4.0-0.0","<div style=""font-size:60px;"">+</div>","null","fixation","","","","","","","","","","","","","",""
"","null","snap-keyboard-response","10","102517","0.0-4.0-1.0","1","null","","135,156,96","192.25233918766372,-165.80751451100838,96.96192404926744","-55.12747116339995,-111.83858069414934,174.92394142787916","encoding","","","","","","","","","",""
"","null","html-keyboard-response","11","102818","0.0-4.0-2.0","<div style=""font-size:60px;"">+</div>","null","","","","","","delay","","","","","","","","",""
"","null","mask-keyboard-response","12","102821","0.0-4.0-3.0","1","null","","135,156,96","192.25233918766372,-165.80751451100838,96.96192404926744","-55.12747116339995,-111.83858069414934,174.92394142787916","backward_mask","","","","","","","","","",""
"","null","html-keyboard-response","13","112523","0.0-4.0-4.0","<div style=""font-size:60px;"">+</div>","null","","","","","","delay","","","","","","","","",""
"","2154","continuous_report","14","114679","0.0-4.0-5.0","1","","","135,156,96","192.25233918766372,-165.80751451100838,96.96192404926744","-55.12747116339995,-111.83858069414934,174.92394142787916","Probe","","null","999","550","202,88,168","88","-8","223,77,151","96","2"
"[{""page_index"":0,""viewing_time"":2496}]","2496","instructions","15","117175","0.0-5.0","","","","","","","","","","","","","","","","",""
"[{""page_index"":0,""viewing_time"":2093}]","2093","instructions","16","119268","0.0-6.0","","","","","","","","","","","","","","","","",""
"","null","html-keyboard-response","17","120268","0.0-7.0-0.0","<div style=""font-size:60px;"">+</div>","null","","","","","fixation","","","","","","","","","",""
"","null","snap-keyboard-response","18","120369","0.0-7.0-1.0","1","null","","68,172,18","-193.18516525781368,176.5895185717854,51.76380902050415","-51.76380902050407,93.89431255717817,193.18516525781365","encoding","","","","","","","","","",""
"","null","html-keyboard-response","19","120671","0.0-7.0-2.0","<div style=""font-size:60px;"">+</div>","null","","","","","","delay","","","","","","","","",""
"","null","mask-keyboard-response","20","120674","0.0-7.0-3.0","1","null","","68,172,18","-193.18516525781368,176.5895185717854,51.76380902050415","-51.76380902050407,93.89431255717817,193.18516525781365","backward_mask","","","","","","","","","",""
"","null","html-keyboard-response","21","130375","0.0-7.0-4.0","<div style=""font-size:60px;"">+</div>","null","","","","","","delay","","","","","","","","",""
"","14766","continuous_report","22","145143","0.0-7.0-5.0","1","","","68,172,18","-193.18516525781368,176.5895185717854,51.76380902050415","-51.76380902050407,93.89431255717817,193.18516525781365","Probe","","null","832","483","161,125,44","168","-4","151,128,50","172","1"
"","null","html-keyboard-response","23","146145","0.0-7.0-0.1","<div style=""font-size:60px;"">+</div>","null","","","","","fixation","","","","","","","","","",""
"","null","snap-keyboard-response","24","146247","0.0-7.0-1.1","2","null","","151,14,71","198.05361374831406,-169.6096192312852,-61.80339887498951","27.834620192013087,105.98385284664099,-190.2113032590307","encoding","","","","","","","","","",""
"","null","html-keyboard-response","25","146549","0.0-7.0-2.1","<div style=""font-size:60px;"">+</div>","null","","","","","","delay","","","","","","","","",""
"","null","mask-keyboard-response","26","146552","0.0-7.0-3.1","2","null","","151,14,71","198.05361374831406,-169.6096192312852,-61.80339887498951","27.834620192013087,105.98385284664099,-190.2113032590307","backward_mask","","","","","","","","","",""
"","null","html-keyboard-response","27","156253","0.0-7.0-4.1","<div style=""font-size:60px;"">+</div>","null","","","","","","delay","","","","","","","","",""
"","4355","continuous_report","28","160610","0.0-7.0-5.1","2","","","151,14,71","198.05361374831406,-169.6096192312852,-61.80339887498951","27.834620192013087,105.98385284664099,-190.2113032590307","Probe","","null","727","426","94,138,98","15","1","96,137,95","14","1"
"","null","html-keyboard-response","29","161612","0.0-7.0-0.2","<div style=""font-size:60px;"">+</div>","null","","","","","fixation","","","","","","","","","",""
"","null","snap-keyboard-response","30","161714","0.0-7.0-1.2","3","null","","32,67,94","189.1037151198633,-199.87816540381914,-10.467191248588724","-65.11363089143151,-6.979899340500179,199.72590695091478","encoding","","","","","","","","","",""
"","null","html-keyboard-response","31","162016","0.0-7.0-2.2","<div style=""font-size:60px;"">+</div>","null","","","","","","delay","","","","","","","","",""
"","null","mask-keyboard-response","32","162019","0.0-7.0-3.2","3","null","","32,67,94","189.1037151198633,-199.87816540381914,-10.467191248588724","-65.11363089143151,-6.979899340500179,199.72590695091478","backward_mask","","","","","","","","","",""
"","null","html-keyboard-response","33","171719","0.0-7.0-4.2","<div style=""font-size:60px;"">+</div>","null","","","","","","delay","","","","","","","","",""
"","4459","continuous_report","34","176180","0.0-7.0-5.2","3","","","32,67,94","189.1037151198633,-199.87816540381914,-10.467191248588724","-65.11363089143151,-6.979899340500179,199.72590695091478","Probe","","null","941","275","196,91,171","86","-8","218,80,156","94","2"
"","null","html-keyboard-response","35","177182","0.0-7.0-0.3","<div style=""font-size:60px;"">+</div>","null","","","","","fixation","","","","","","","","","",""
"","null","snap-keyboard-response","36","177283","0.0-7.0-1.3","4","null","","178,76,126","-123.13229506513164,196.3254366895328,71.67358990906007","-157.6021507213444,38.16179907530896,186.71608529944035","encoding","","","","","","","","","",""
"","null","html-keyboard-response","37","177585","0.0-7.0-2.3","<div style=""font-size:60px;"">+</div>","null","","","","","","delay","","","","","","","","",""
"","null","mask-keyboard-response","38","177587","0.0-7.0-3.3","4","null","","178,76,126","-123.13229506513164,196.3254366895328,71.67358990906007","-157.6021507213444,38.16179907530896,186.71608529944035","backward_mask","","","","","","","","","",""
"","null","html-keyboard-response","39","187290","0.0-7.0-4.3","<div style=""font-size:60px;"">+</div>","null","","","","","","delay","","","","","","","","",""
"","6393","continuous_report","40","193685","0.0-7.0-5.3","4","","","178,76,126","-123.13229506513164,196.3254366895328,71.67358990906007","-157.6021507213444,38.16179907530896,186.71608529944035","Probe","","null","823","472","144,130,55","175","-3","136,132,60","178","0"
"","null","html-keyboard-response","41","194686","0.0-7.0-0.4","<div style=""font-size:60px;"">+</div>","null","","","","","fixation","","","","","","","","","",""
"","null","snap-keyboard-response","42","194788","0.0-7.0-1.4","","null","","29,104,141","-187.9385241571817,78.1462256978547,48.38437911993358","-68.40402866513374,-184.1009706904881,194.0591452551993","encoding","","","","","","","","","",""
"","null","html-keyboard-response","43","195090","0.0-7.0-2.4","<div style=""font-size:60px;"">+</div>","null","","","","","","delay","","","","","","","","",""
"","null","mask-keyboard-response","44","195092","0.0-7.0-3.4","","null","","29,104,141","-187.9385241571817,78.1462256978547,48.38437911993358","-68.40402866513374,-184.1009706904881,194.0591452551993","backward_mask","","","","","","","","","",""
"","null","html-keyboard-response","45","204794","0.0-7.0-4.4","<div style=""font-size:60px;"">+</div>","null","","","","","","delay","","","","","","","","",""
"","4752","continuous_report","46","209547","0.0-7.0-5.4","","","","29,104,141","-187.9385241571817,78.1462256978547,48.38437911993358","-68.40402866513374,-184.1009706904881,194.0591452551993","Probe","","null","753","418","204,107,40","150","9","223,95,52","141","2"
"","null","html-keyboard-response","47","210549","0.0-7.0-0.5","<div style=""font-size:60px;"">+</div>","null","","","","","fixation","","","","","","","","","",""
"","null","snap-keyboard-response","48","210651","0.0-7.0-1.5","","null","","79,106,20","-184.10097069048808,27.834620192013087,141.4213562373095","-78.1462256978547,-198.05361374831406,141.42135623730948","encoding","","","","","","","","","",""
"","null","html-keyboard-response","49","210952","0.0-7.0-2.5","<div style=""font-size:60px;"">+</div>","null","","","","","","delay","","","","","","","","",""
"","null","mask-keyboard-response","50","210955","0.0-7.0-3.5","","null","","79,106,20","-184.10097069048808,27.834620192013087,141.4213562373095","-78.1462256978547,-198.05361374831406,141.42135623730948","backward_mask","","","","","","","","","",""
"","null","html-keyboard-response","51","220656","0.0-7.0-4.5","<div style=""font-size:60px;"">+</div>","null","","","","","","delay","","","","","","","","",""
"","6955","continuous_report","52","227614","0.0-7.0-5.5","","","","79,106,20","-184.10097069048808,27.834620192013087,141.4213562373095","-78.1462256978547,-198.05361374831406,141.42135623730948","Probe","","null","743","360","170,102,183","78","-1","173,101,181","79","0"
"","null","html-keyboard-response","53","228615","0.0-7.0-0.6","<div style=""font-size:60px;"">+</div>","null","","","","","fixation","","","","","","","","","",""
"","null","snap-keyboard-response","54","228717","0.0-7.0-1.6","","null","","91,13,148","87.67422935781548,38.161799075308984,199.51281005196486","-179.7588092598334,196.3254366895328,-13.951294748824953","encoding","","","","","","","","","",""
"","null","html-keyboard-response","55","229019","0.0-7.0-2.6","<div style=""font-size:60px;"">+</div>","null","","","","","","delay","","","","","","","","",""
"","null","mask-keyboard-response","56","229022","0.0-7.0-3.6","","null","","91,13,148","87.67422935781548,38.161799075308984,199.51281005196486","-179.7588092598334,196.3254366895328,-13.951294748824953","backward_mask","","","","","","","","","",""
"","null","html-keyboard-response","57","238724","0.0-7.0-4.6","<div style=""font-size:60px;"">+</div>","null","","","","","","delay","","","","","","","","",""
"","10274","continuous_report","58","248999","0.0-7.0-5.6","","","","91,13,148","87.67422935781548,38.161799075308984,199.51281005196486","-179.7588092598334,196.3254366895328,-13.951294748824953","Probe","","null","781","422","211,84,162","91","0","211,84,162","91","0"
"","null","html-keyboard-response","59","250000","0.0-7.0-0.7","<div style=""font-size:60px;"">+</div>","null","","","","","fixation","","","","","","","","","",""
"","null","snap-keyboard-response","60","250103","0.0-7.0-1.7","","null","","151,74,112","-196.96155060244163,-105.983852846641,163.83040885779835","34.72963553338605,-169.60961923128517,114.71528727020922","encoding","","","","","","","","","",""
"","null","html-keyboard-response","61","250404","0.0-7.0-2.7","<div style=""font-size:60px;"">+</div>","null","","","","","","delay","","","","","","","","",""
"","null","mask-keyboard-response","62","250407","0.0-7.0-3.7","","null","","151,74,112","-196.96155060244163,-105.983852846641,163.83040885779835","34.72963553338605,-169.60961923128517,114.71528727020922","backward_mask","","","","","","","","","",""
"","null","html-keyboard-response","63","260109","0.0-7.0-4.7","<div style=""font-size:60px;"">+</div>","null","","","","","","delay","","","","","","","","",""
"","22233","continuous_report","64","282344","0.0-7.0-5.7","","","","151,74,112","-196.96155060244163,-105.983852846641,163.83040885779835","34.72963553338605,-169.60961923128517,114.71528727020922","Probe","","null","791","440","139,113,188","70","-4","155,108,186","74","1"
"","null","html-keyboard-response","65","283345","0.0-7.0-0.8","<div style=""font-size:60px;"">+</div>","null","","","","","fixation","","","","","","","","","",""
"","null","snap-keyboard-response","66","283447","0.0-7.0-1.8","","null","","129,113,69","-138.9316740917994,-190.21130325903067,133.82612127177168","143.86796006773028,-61.80339887498955,148.62896509547883","encoding","","","","","","","","","",""
"","null","html-keyboard-response","67","283748","0.0-7.0-2.8","<div style=""font-size:60px;"">+</div>","null","","","","","","delay","","","","","","","","",""
"","null","mask-keyboard-response","68","283752","0.0-7.0-3.8","","null","","129,113,69","-138.9316740917994,-190.21130325903067,133.82612127177168","143.86796006773028,-61.80339887498955,148.62896509547883","backward_mask","","","","","","","","","",""
"","null","html-keyboard-response","69","293454","0.0-7.0-4.8","<div style=""font-size:60px;"">+</div>","null","","","","","","delay","","","","","","","","",""
"","2770","continuous_report","70","296226","0.0-7.0-5.8","","","","129,113,69","-138.9316740917994,-190.21130325903067,133.82612127177168","143.86796006773028,-61.80339887498955,148.62896509547883","Probe","","null","685","329","223,77,151","96","-17","245,65,110","113","1"
"","null","html-keyboard-response","71","297228","0.0-7.0-0.9","<div style=""font-size:60px;"">+</div>","null","","","","","fixation","","","","","","","","","",""
"","null","snap-keyboard-response","72","297330","0.0-7.0-1.9","","null","","87,21,43","-13.951294748825116,133.82612127177157,-117.5570504584946","-199.51281005196483,-148.62896509547895,161.80339887498948","encoding","","","","","","","","","",""
"","null","html-keyboard-response","73","297631","0.0-7.0-2.9","<div style=""font-size:60px;"">+</div>","null","","","","","","delay","","","","","","","","",""
"","null","mask-keyboard-response","74","297634","0.0-7.0-3.9","","null","","87,21,43","-13.951294748825116,133.82612127177157,-117.5570504584946","-199.51281005196483,-148.62896509547895,161.80339887498948","backward_mask","","","","","","","","","",""
"","null","html-keyboard-response","75","307335","0.0-7.0-4.9","<div style=""font-size:60px;"">+</div>","null","","","","","","delay","","","","","","","","",""
"","2456","continuous_report","76","309793","0.0-7.0-5.9","","","","87,21,43","-13.951294748825116,133.82612127177157,-117.5570504584946","-199.51281005196483,-148.62896509547895,161.80339887498948","Probe","","null","856","430","23,136,156","39","18","78,138,113","21","1"
"","null","html-keyboard-response","77","310795","0.0-7.0-0.10","<div style=""font-size:60px;"">+</div>","null","","","","","fixation","","","","","","","","","",""
"","null","snap-keyboard-response","78","310897","0.0-7.0-1.10","","null","","157,95,142","51.76380902050415,157.60215072134432,-174.92394142787916","193.18516525781365,-123.13229506513177,-96.9619240492674","encoding","","","","","","","","","",""
"","null","html-keyboard-response","79","311198","0.0-7.0-2.10","<div style=""font-size:60px;"">+</div>","null","","","","","","delay","","","","","","","","",""
"","null","mask-keyboard-response","80","311202","0.0-7.0-3.10","","null","","157,95,142","51.76380902050415,157.60215072134432,-174.92394142787916","193.18516525781365,-123.13229506513177,-96.9619240492674","backward_mask","","","","","","","","","",""
"","null","html-keyboard-response","81","320903","0.0-7.0-4.10","<div style=""font-size:60px;"">+</div>","null","","","","","","delay","","","","","","","","",""
"","4896","continuous_report","82","325802","0.0-7.0-5.10","","","","157,95,142","51.76380902050415,157.60215072134432,-174.92394142787916","193.18516525781365,-123.13229506513177,-96.9619240492674","Probe","","null","770","427","233,72,140","101","6","221,79,154","95","1"
"","null","html-keyboard-response","83","326803","0.0-7.0-0.11","<div style=""font-size:60px;"">+</div>","null","","","","","fixation","","","","","","","","","",""
"","null","snap-keyboard-response","84","326905","0.0-7.0-1.11","","null","","58,138,16","171.43346014042243,-27.834620192012988,143.86796006773025","-103.00761498201089,-198.05361374831406,138.93167409179944","encoding","","","","","","","","","",""
"","null","html-keyboard-response","85","327207","0.0-7.0-2.11","<div style=""font-size:60px;"">+</div>","null","","","","","","delay","","","","","","","","",""
"","null","mask-keyboard-response","86","327210","0.0-7.0-3.11","","null","","58,138,16","171.43346014042243,-27.834620192012988,143.86796006773025","-103.00761498201089,-198.05361374831406,138.93167409179944","backward_mask","","","","","","","","","",""
"","null","html-keyboard-response","87","336911","0.0-7.0-4.11","<div style=""font-size:60px;"">+</div>","null","","","","","","delay","","","","","","","","",""
"","8620","continuous_report","88","345533","0.0-7.0-5.11","","","","58,138,16","171.43346014042243,-27.834620192012988,143.86796006773025","-103.00761498201089,-198.05361374831406,138.93167409179944","Probe","","null","760","393","70,128,181","53","-5","91,125,186","58","0"
"","null","html-keyboard-response","89","346535","0.0-7.0-0.12","<div style=""font-size:60px;"">+</div>","null","","","","","fixation","","","","","","","","","",""
"","null","snap-keyboard-response","90","346638","0.0-7.0-1.12","","null","","11,117,37","-192.25233918766372,-65.11363089143128,-96.96192404926737","55.12747116339993,189.10371511986338,-174.92394142787916","encoding","","","","","","","","","",""
"","null","html-keyboard-response","91","346939","0.0-7.0-2.12","<div style=""font-size:60px;"">+</div>","null","","","","","","delay","","","","","","","","",""
"","null","mask-keyboard-response","92","346942","0.0-7.0-3.12","","null","","11,117,37","-192.25233918766372,-65.11363089143128,-96.96192404926737","55.12747116339993,189.10371511986338,-174.92394142787916","backward_mask","","","","","","","","","",""
"","null","html-keyboard-response","93","356644","0.0-7.0-4.12","<div style=""font-size:60px;"">+</div>","null","","","","","","delay","","","","","","","","",""
"","3997","continuous_report","94","360642","0.0-7.0-5.12","","","","11,117,37","-192.25233918766372,-65.11363089143128,-96.96192404926737","55.12747116339993,189.10371511986338,-174.92394142787916","Probe","","null","841","473","64,138,125","26","15","104,137,88","11","0"
"","null","html-keyboard-response","95","361644","0.0-7.0-0.13","<div style=""font-size:60px;"">+</div>","null","","","","","fixation","","","","","","","","","",""
"","null","snap-keyboard-response","96","361746","0.0-7.0-1.13","","null","","69,31,49","10.467191248588794,100,-196.3254366895328","199.72590695091478,-173.20508075688772,-38.16179907530895","encoding","","","","","","","","","",""
"","null","html-keyboard-response","97","362047","0.0-7.0-2.13","<div style=""font-size:60px;"">+</div>","null","","","","","","delay","","","","","","","","",""
"","null","mask-keyboard-response","98","362050","0.0-7.0-3.13","","null","","69,31,49","10.467191248588794,100,-196.3254366895328","199.72590695091478,-173.20508075688772,-38.16179907530895","backward_mask","","","","","","","","","",""
"","null","html-keyboard-response","99","371752","0.0-7.0-4.13","<div style=""font-size:60px;"">+</div>","null","","","","","","delay","","","","","","","","",""
"","11185","continuous_report","100","382939","0.0-7.0-5.13","","","","69,31,49","10.467191248588794,100,-196.3254366895328","199.72590695091478,-173.20508075688772,-38.16179907530895","Probe","","null","795","433","94,138,98","15","-16","49,138,138","31","1"
"","null","html-keyboard-response","101","383941","0.0-7.0-0.14","<div style=""font-size:60px;"">+</div>","null","","","","","fixation","","","","","","","","","",""
"","null","snap-keyboard-response","102","384042","0.0-7.0-1.14","","null","","42,162,25","108.92780700300533,-184.10097069048808,-99.99999999999996","-167.73411358908484,-78.1462256978547,173.20508075688775","encoding","","","","","","","","","",""
"","null","html-keyboard-response","103","384343","0.0-7.0-2.14","<div style=""font-size:60px;"">+</div>","null","","","","","","delay","","","","","","","","",""
"","null","mask-keyboard-response","104","384346","0.0-7.0-3.14","","null","","42,162,25","108.92780700300533,-184.10097069048808,-99.99999999999996","-167.73411358908484,-78.1462256978547,173.20508075688775","backward_mask","","","","","","","","","",""
"","null","html-keyboard-response","105","394047","0.0-7.0-4.14","<div style=""font-size:60px;"">+</div>","null","","","","","","delay","","","","","","","","",""
"","4189","continuous_report","106","398238","0.0-7.0-5.14","","","","42,162,25","108.92780700300533,-184.10097069048808,-99.99999999999996","-167.73411358908484,-78.1462256978547,173.20508075688775","Probe","","null","779","446","79,127,183","55","13","28,134,163","42","0"
"","null","html-keyboard-response","107","399240","0.0-7.0-0.15","<div style=""font-size:60px;"">+</div>","null","","","","","fixation","","","","","","","","","",""
"","null","snap-keyboard-response","108","399342","0.0-7.0-1.15","","null","","95,65,131","-131.21180579810155,199.51281005196486,-108.92780700300541","-150.94191604455435,-13.951294748824953,167.7341135890848","encoding","","","","","","","","","",""
"","null","html-keyboard-response","109","399643","0.0-7.0-2.15","<div style=""font-size:60px;"">+</div>","null","","","","","","delay","","","","","","","","",""
"","null","mask-keyboard-response","110","399646","0.0-7.0-3.15","","null","","95,65,131","-131.21180579810155,199.51281005196486,-108.92780700300541","-150.94191604455435,-13.951294748824953,167.7341135890848","backward_mask","","","","","","","","","",""
"","null","html-keyboard-response","111","409348","0.0-7.0-4.15","<div style=""font-size:60px;"">+</div>","null","","","","","","delay","","","","","","","","",""
"","5426","continuous_report","112","414775","0.0-7.0-5.15","","","","95,65,131","-131.21180579810155,199.51281005196486,-108.92780700300541","-150.94191604455435,-13.951294748824953,167.7341135890848","Probe","","null","772","427","231,73,142","100","5","221,79,154","95","0"
"","null","html-keyboard-response","113","415777","0.0-7.0-0.16","<div style=""font-size:60px;"">+</div>","null","","","","","fixation","","","","","","","","","",""
"","null","snap-keyboard-response","114","415879","0.0-7.0-1.16","","null","","173,95,58","114.71528727020922,136.3996720124997,196.96155060244158","-163.83040885779835,146.2707403238341,-34.72963553338626","encoding","","","","","","","","","",""
"","null","html-keyboard-response","115","416180","0.0-7.0-2.16","<div style=""font-size:60px;"">+</div>","null","","","","","","delay","","","","","","","","",""
"","null","mask-keyboard-response","116","416183","0.0-7.0-3.16","","null","","173,95,58","114.71528727020922,136.3996720124997,196.96155060244158","-163.83040885779835,146.2707403238341,-34.72963553338626","backward_mask","","","","","","","","","",""
"","null","html-keyboard-response","117","425884","0.0-7.0-4.16","<div style=""font-size:60px;"">+</div>","null","","","","","","delay","","","","","","","","",""
"","8273","continuous_report","118","434159","0.0-7.0-5.16","","","","173,95,58","114.71528727020922,136.3996720124997,196.96155060244158","-163.83040885779835,146.2707403238341,-34.72963553338626","Probe","","null","780","420","36,137,147","35","-23","91,125,186","58","2"
"","null","html-keyboard-response","119","435160","0.0-7.0-0.17","<div style=""font-size:60px;"">+</div>","null","","","","","fixation","","","","","","","","","",""
"","null","snap-keyboard-response","120","435262","0.0-7.0-1.17","","null","","35,136,0","90.79809994790936,-74.92131868318246,187.9385241571817","178.20130483767355,-185.43677091335746,-68.40402866513371","encoding","","","","","","","","","",""
"","null","html-keyboard-response","121","435564","0.0-7.0-2.17","<div style=""font-size:60px;"">+</div>","null","","","","","","delay","","","","","","","","",""
"","null","mask-keyboard-response","122","435567","0.0-7.0-3.17","","null","","35,136,0","90.79809994790936,-74.92131868318246,187.9385241571817","178.20130483767355,-185.43677091335746,-68.40402866513371","backward_mask","","","","","","","","","",""
"","null","html-keyboard-response","123","445269","0.0-7.0-4.17","<div style=""font-size:60px;"">+</div>","null","","","","","","delay","","","","","","","","",""
"","6178","continuous_report","124","451450","0.0-7.0-5.17","","","","35,136,0","90.79809994790936,-74.92131868318246,187.9385241571817","178.20130483767355,-185.43677091335746,-68.40402866513371","Probe","","null","770","395","173,121,38","163","163","131,133,64","0","2"
"","null","html-keyboard-response","125","452451","0.0-7.0-0.18","<div style=""font-size:60px;"">+</div>","null","","","","","fixation","","","","","","","","","",""
"","null","snap-keyboard-response","126","452553","0.0-7.0-1.18","","null","","50,96,13","-173.20508075688775,-155.42919229139414,-6.979899340500328","99.99999999999999,-125.86407820996752,-199.87816540381914","encoding","","","","","","","","","",""
"","null","html-keyboard-response","127","452855","0.0-7.0-2.18","<div style=""font-size:60px;"">+</div>","null","","","","","","delay","","","","","","","","",""
"","null","mask-keyboard-response","128","452858","0.0-7.0-3.18","","null","","50,96,13","-173.20508075688775,-155.42919229139414,-6.979899340500328","99.99999999999999,-125.86407820996752,-199.87816540381914","backward_mask","","","","","","","","","",""
"","null","html-keyboard-response","129","462560","0.0-7.0-4.18","<div style=""font-size:60px;"">+</div>","null","","","","","","delay","","","","","","","","",""
"","5673","continuous_report","130","468234","0.0-7.0-5.18","","","","50,96,13","-173.20508075688775,-155.42919229139414,-6.979899340500328","99.99999999999999,-125.86407820996752,-199.87816540381914","Probe","","null","770","405","55,131,175","49","-1","59,130,177","50","0"
"","null","html-keyboard-response","131","469236","0.0-7.0-0.19","<div style=""font-size:60px;"">+</div>","null","","","","","fixation","","","","","","","","","",""
"","null","snap-keyboard-response","132","469338","0.0-7.0-1.19","","null","","173,147,81","-99.99999999999996,51.76380902050415,182.7090915285202","173.20508075688775,193.18516525781365,-81.34732861516002","encoding","","","","","","","","","",""
"","null","html-keyboard-response","133","469640","0.0-7.0-2.19","<div style=""font-size:60px;"">+</div>","null","","","","","","delay","","","","","","","","",""
"","null","mask-keyboard-response","134","469643","0.0-7.0-3.19","","null","","173,147,81","-99.99999999999996,51.76380902050415,182.7090915285202","173.20508075688775,193.18516525781365,-81.34732861516002","backward_mask","","","","","","","","","",""
"","null","html-keyboard-response","135","479344","0.0-7.0-4.19","<div style=""font-size:60px;"">+</div>","null","","","","","","delay","","","","","","","","",""
"","6640","continuous_report","136","485987","0.0-7.0-5.19","","","","173,147,81","-99.99999999999996,51.76380902050415,182.7090915285202","173.20508075688775,193.18516525781365,-81.34732861516002","Probe","","null","790","407","94,138,98","15","-66","180,98,179","81","2"
"","null","html-keyboard-response","137","486988","0.0-7.0-0.20","<div style=""font-size:60px;"">+</div>","null","","","","","fixation","","","","","","","","","",""
"","null","snap-keyboard-response","138","487091","0.0-7.0-1.20","","null","","112,1,144","117.55705045849459,31.286893008046185,-189.10371511986335","-161.8033988749895,197.53766811902756,65.1136308914314","encoding","","","","","","","","","",""
"","null","html-keyboard-response","139","487391","0.0-7.0-2.20","<div style=""font-size:60px;"">+</div>","null","","","","","","delay","","","","","","","","",""
"","null","mask-keyboard-response","140","487394","0.0-7.0-3.20","","null","","112,1,144","117.55705045849459,31.286893008046185,-189.10371511986335","-161.8033988749895,197.53766811902756,65.1136308914314","backward_mask","","","","","","","","","",""
"","null","html-keyboard-response","141","497096","0.0-7.0-4.20","<div style=""font-size:60px;"">+</div>","null","","","","","","delay","","","","","","","","",""
"","4695","continuous_report","142","501793","0.0-7.0-5.20","","","","112,1,144","117.55705045849459,31.286893008046185,-189.10371511986335","-161.8033988749895,197.53766811902756,65.1136308914314","Probe","","null","828","557","164,124,43","167","166","129,133,66","1","1"
"","null","html-keyboard-response","143","502794","0.0-7.0-0.21","<div style=""font-size:60px;"">+</div>","null","","","","","fixation","","","","","","","","","",""
"","null","snap-keyboard-response","144","502896","0.0-7.0-1.21","","null","","94,12,52","157.60215072134432,192.25233918766378,-167.7341135890848","-123.13229506513177,55.12747116339983,-108.92780700300541","encoding","","","","","","","","","",""
"","null","html-keyboard-response","145","503197","0.0-7.0-2.21","<div style=""font-size:60px;"">+</div>","null","","","","","","delay","","","","","","","","",""
"","null","mask-keyboard-response","146","503200","0.0-7.0-3.21","","null","","94,12,52","157.60215072134432,192.25233918766378,-167.7341135890848","-123.13229506513177,55.12747116339983,-108.92780700300541","backward_mask","","","","","","","","","",""
"","null","html-keyboard-response","147","512902","0.0-7.0-4.21","<div style=""font-size:60px;"">+</div>","null","","","","","","delay","","","","","","","","",""
"","1994","continuous_report","148","514898","0.0-7.0-5.21","","","","94,12,52","157.60215072134432,192.25233918766378,-167.7341135890848","-123.13229506513177,55.12747116339983,-108.92780700300541","Probe","","null","979","474","99,137,93","13","1","101,137,90","12","1"
"","null","html-keyboard-response","149","515899","0.0-7.0-0.22","<div style=""font-size:60px;"">+</div>","null","","","","","fixation","","","","","","","","","",""
"","null","snap-keyboard-response","150","516001","0.0-7.0-1.22","","null","","27,86,150","-194.0591452551993,-81.34732861516002,-55.127471163399775","48.38437911993355,182.7090915285202,-192.2523391876638","encoding","","","","","","","","","",""
"","null","html-keyboard-response","151","516303","0.0-7.0-2.22","<div style=""font-size:60px;"">+</div>","null","","","","","","delay","","","","","","","","",""
"","null","mask-keyboard-response","152","516305","0.0-7.0-3.22","","null","","27,86,150","-194.0591452551993,-81.34732861516002,-55.127471163399775","48.38437911993355,182.7090915285202,-192.2523391876638","backward_mask","","","","","","","","","",""
"","null","html-keyboard-response","153","526006","0.0-7.0-4.22","<div style=""font-size:60px;"">+</div>","null","","","","","","delay","","","","","","","","",""
"","6947","continuous_report","154","532954","0.0-7.0-5.22","","","","27,86,150","-194.0591452551993,-81.34732861516002,-55.127471163399775","48.38437911993355,182.7090915285202,-192.2523391876638","Probe","","null","870","490","42,137,143","33","6","61,138,128","27","0"
"","null","html-keyboard-response","155","533956","0.0-7.0-0.23","<div style=""font-size:60px;"">+</div>","null","","","","","fixation","","","","","","","","","",""
"","null","snap-keyboard-response","156","534058","0.0-7.0-1.23","","null","","37,131,175","17.431148549531624,-173.20508075688775,198.90437907365467","199.23893961834912,99.99999999999999,-20.905692653530682","encoding","","","","","","","","","",""
"","null","html-keyboard-response","157","534358","0.0-7.0-2.23","<div style=""font-size:60px;"">+</div>","null","","","","","","delay","","","","","","","","",""
"","null","mask-keyboard-response","158","534361","0.0-7.0-3.23","","null","","37,131,175","17.431148549531624,-173.20508075688775,198.90437907365467","199.23893961834912,99.99999999999999,-20.905692653530682","backward_mask","","","","","","","","","",""
"","null","html-keyboard-response","159","544063","0.0-7.0-4.23","<div style=""font-size:60px;"">+</div>","null","","","","","","delay","","","","","","","","",""
"","12467","continuous_report","160","556534","0.0-7.0-5.23","","","","37,131,175","17.431148549531624,-173.20508075688775,198.90437907365467","199.23893961834912,99.99999999999999,-20.905692653530682","Probe","","null","755","437","49,138,138","31","-144","144,130,55","175","2"
"","null","html-keyboard-response","161","557534","0.0-7.0-0.24","<div style=""font-size:60px;"">+</div>","null","","","","","fixation","","","","","","","","","",""
"","null","snap-keyboard-response","162","557636","0.0-7.0-1.24","","null","","10,161,114","-81.34732861516002,-199.72590695091478,-99.99999999999996","-182.7090915285202,10.467191248588762,173.20508075688775","encoding","","","","","","","","","",""
"","null","html-keyboard-response","163","557938","0.0-7.0-2.24","<div style=""font-size:60px;"">+</div>","null","","","","","","delay","","","","","","","","",""
"","null","mask-keyboard-response","164","557941","0.0-7.0-3.24","","null","","10,161,114","-81.34732861516002,-199.72590695091478,-99.99999999999996","-182.7090915285202,10.467191248588762,173.20508075688775","backward_mask","","","","","","","","","",""
"","null","html-keyboard-response","165","567643","0.0-7.0-4.24","<div style=""font-size:60px;"">+</div>","null","","","","","","delay","","","","","","","","",""
"","3108","continuous_report","166","570753","0.0-7.0-5.24","","","","10,161,114","-81.34732861516002,-199.72590695091478,-99.99999999999996","-182.7090915285202,10.467191248588762,173.20508075688775","Probe","","null","666","349","61,138,128","27","17","106,137,86","10","0"
"","null","html-keyboard-response","167","571755","0.0-7.0-0.25","<div style=""font-size:60px;"">+</div>","null","","","","","fixation","","","","","","","","","",""
"","null","snap-keyboard-response","168","571857","0.0-7.0-1.25","","null","","159,175,69","143.86796006773017,90.79809994790936,-128.5575219373079","-138.93167409179952,178.20130483767355,-153.2088886237956","encoding","","","","","","","","","",""
"","null","html-keyboard-response","169","572158","0.0-7.0-2.25","<div style=""font-size:60px;"">+</div>","null","","","","","","delay","","","","","","","","",""
"","null","mask-keyboard-response","170","572161","0.0-7.0-3.25","","null","","159,175,69","143.86796006773017,90.79809994790936,-128.5575219373079","-138.93167409179952,178.20130483767355,-153.2088886237956","backward_mask","","","","","","","","","",""
"","null","html-keyboard-response","171","581862","0.0-7.0-4.25","<div style=""font-size:60px;"">+</div>","null","","","","","","delay","","","","","","","","",""
"","8217","continuous_report","172","590081","0.0-7.0-5.25","","","","159,175,69","143.86796006773017,90.79809994790936,-128.5575219373079","-138.93167409179952,178.20130483767355,-153.2088886237956","Probe","","null","671","435","162,105,185","76","7","135,114,189","69","2"
"","null","html-keyboard-response","173","591082","0.0-7.0-0.26","<div style=""font-size:60px;"">+</div>","null","","","","","fixation","","","","","","","","","",""
"","null","snap-keyboard-response","174","591184","0.0-7.0-1.26","","null","","53,117,23","105.98385284664099,-133.82612127177168,198.90437907365467","169.6096192312852,-148.6289650954788,20.905692653530693","encoding","","","","","","","","","",""
"","null","html-keyboard-response","175","591486","0.0-7.0-2.26","<div style=""font-size:60px;"">+</div>","null","","","","","","delay","","","","","","","","",""
"","null","mask-keyboard-response","176","591489","0.0-7.0-3.26","","null","","53,117,23","105.98385284664099,-133.82612127177168,198.90437907365467","169.6096192312852,-148.6289650954788,20.905692653530693","backward_mask","","","","","","","","","",""
"","null","html-keyboard-response","177","601191","0.0-7.0-4.26","<div style=""font-size:60px;"">+</div>","null","","","","","","delay","","","","","","","","",""
"","11837","continuous_report","178","613030","0.0-7.0-5.26","","","","53,117,23","105.98385284664099,-133.82612127177168,198.90437907365467","169.6096192312852,-148.6289650954788,20.905692653530693","Probe","","null","743","422","28,134,163","42","-11","70,128,181","53","0"
"","null","html-keyboard-response","179","614031","0.0-7.0-0.27","<div style=""font-size:60px;"">+</div>","null","","","","","fixation","","","","","","","","","",""
"","null","snap-keyboard-response","180","614134","0.0-7.0-1.27","","null","","10,25,160","-84.52365234813986,176.5895185717854,-195.62952014676114","181.26155740733,93.89431255717817,-41.58233816355181","encoding","","","","","","","","","",""
"","null","html-keyboard-response","181","614435","0.0-7.0-2.27","<div style=""font-size:60px;"">+</div>","null","","","","","","delay","","","","","","","","",""
"","null","mask-keyboard-response","182","614438","0.0-7.0-3.27","","null","","10,25,160","-84.52365234813986,176.5895185717854,-195.62952014676114","181.26155740733,93.89431255717817,-41.58233816355181","backward_mask","","","","","","","","","",""
"","null","html-keyboard-response","183","624140","0.0-7.0-4.27","<div style=""font-size:60px;"">+</div>","null","","","","","","delay","","","","","","","","",""
"","2039","continuous_report","184","626181","0.0-7.0-5.27","","","","10,25,160","-84.52365234813986,176.5895185717854,-195.62952014676114","181.26155740733,93.89431255717817,-41.58233816355181","Probe","","null","996","436","79,127,183","55","30","67,138,123","25","1"
"","null","html-keyboard-response","185","627182","0.0-7.0-0.28","<div style=""font-size:60px;"">+</div>","null","","","","","fixation","","","","","","","","","",""
"","null","snap-keyboard-response","186","627284","0.0-7.0-1.28","","null","","16,59,107","195.62952014676114,-198.5092303282644,105.98385284664093","41.58233816355186,-24.37386868102955,-169.60961923128522","encoding","","","","","","","","","",""
"","null","html-keyboard-response","187","627586","0.0-7.0-2.28","<div style=""font-size:60px;"">+</div>","null","","","","","","delay","","","","","","","","",""
"","null","mask-keyboard-response","188","627589","0.0-7.0-3.28","","null","","16,59,107","195.62952014676114,-198.5092303282644,105.98385284664093","41.58233816355186,-24.37386868102955,-169.60961923128522","backward_mask","","","","","","","","","",""
"","null","html-keyboard-response","189","637290","0.0-7.0-4.28","<div style=""font-size:60px;"">+</div>","null","","","","","","delay","","","","","","","","",""
"","6089","continuous_report","190","643382","0.0-7.0-5.28","","","","16,59,107","195.62952014676114,-198.5092303282644,105.98385284664093","41.58233816355186,-24.37386868102955,-169.60961923128522","Probe","","null","771","415","109,136,83","9","-7","91,138,100","16","0"
"","null","html-keyboard-response","191","644384","0.0-7.0-0.29","<div style=""font-size:60px;"">+</div>","null","","","","","fixation","","","","","","","","","",""
"","null","snap-keyboard-response","192","644486","0.0-7.0-1.29","","null","","161,77,121","-38.16179907530909,150.9419160445544,-198.5092303282644","-196.32543668953278,131.21180579810144,24.37386868102951","encoding","","","","","","","","","",""
"","null","html-keyboard-response","193","644787","0.0-7.0-2.29","<div style=""font-size:60px;"">+</div>","null","","","","","","delay","","","","","","","","",""
"","null","mask-keyboard-response","194","644790","0.0-7.0-3.29","","null","","161,77,121","-38.16179907530909,150.9419160445544,-198.5092303282644","-196.32543668953278,131.21180579810144,24.37386868102951","backward_mask","","","","","","","","","",""
"","null","html-keyboard-response","195","654492","0.0-7.0-4.29","<div style=""font-size:60px;"">+</div>","null","","","","","","delay","","","","","","","","",""
"","6167","continuous_report","196","660661","0.0-7.0-5.29","","","","161,77,121","-38.16179907530909,150.9419160445544,-198.5092303282644","-196.32543668953278,131.21180579810144,24.37386868102951","Probe","","null","781","427","245,70,89","122","1","246,69,91","121","2"
"","null","html-keyboard-response","197","661663","0.0-7.0-0.30","<div style=""font-size:60px;"">+</div>","null","","","","","fixation","","","","","","","","","",""
"","null","snap-keyboard-response","198","661765","0.0-7.0-1.30","","null","","148,88,17","171.43346014042243,-197.53766811902753,17.431148549531624","-103.00761498201089,31.286893008046196,199.23893961834912","encoding","","","","","","","","","",""
"","null","html-keyboard-response","199","662066","0.0-7.0-2.30","<div style=""font-size:60px;"">+</div>","null","","","","","","delay","","","","","","","","",""
"","null","mask-keyboard-response","200","662070","0.0-7.0-3.30","","null","","148,88,17","171.43346014042243,-197.53766811902753,17.431148549531624","-103.00761498201089,31.286893008046196,199.23893961834912","backward_mask","","","","","","","","","",""
"","null","html-keyboard-response","201","671771","0.0-7.0-4.30","<div style=""font-size:60px;"">+</div>","null","","","","","","delay","","","","","","","","",""
"","4896","continuous_report","202","676669","0.0-7.0-5.30","","","","148,88,17","171.43346014042243,-197.53766811902753,17.431148549531624","-103.00761498201089,31.286893008046196,199.23893961834912","Probe","","null","797","475","162,105,185","76","-12","202,88,168","88","1"
"","null","html-keyboard-response","203","677671","0.0-7.0-0.31","<div style=""font-size:60px;"">+</div>","null","","","","","fixation","","","","","","","","","",""
"","null","snap-keyboard-response","204","677773","0.0-7.0-1.31","","null","","171,33,114","-6.979899340500328,-185.43677091335746,125.86407820996752","-199.87816540381914,74.92131868318245,155.42919229139414","encoding","","","","","","","","","",""
"","null","html-keyboard-response","205","678075","0.0-7.0-2.31","<div style=""font-size:60px;"">+</div>","null","","","","","","delay","","","","","","","","",""
"","null","mask-keyboard-response","206","678078","0.0-7.0-3.31","","null","","171,33,114","-6.979899340500328,-185.43677091335746,125.86407820996752","-199.87816540381914,74.92131868318245,155.42919229139414","backward_mask","","","","","","","","","",""
"","null","html-keyboard-response","207","687780","0.0-7.0-4.31","<div style=""font-size:60px;"">+</div>","null","","","","","","delay","","","","","","","","",""
"","10139","continuous_report","208","697920","0.0-7.0-5.31","","","","171,33,114","-6.979899340500328,-185.43677091335746,125.86407820996752","-199.87816540381914,74.92131868318245,155.42919229139414","Probe","","null","627","413","188,115,36","157","-14","154,127,48","171","0"
"","null","html-keyboard-response","209","698921","0.0-7.0-0.32","<div style=""font-size:60px;"">+</div>","null","","","","","fixation","","","","","","","","","",""
"","null","snap-keyboard-response","210","699022","0.0-7.0-1.32","","null","","140,41,19","3.4904812874566753,84.52365234813992,-179.7588092598334","199.96953903127826,-181.26155740732997,87.67422935781546","encoding","","","","","","","","","",""
"","null","html-keyboard-response","211","699324","0.0-7.0-2.32","<div style=""font-size:60px;"">+</div>","null","","","","","","delay","","","","","","","","",""
"","null","mask-keyboard-response","212","699327","0.0-7.0-3.32","","null","","140,41,19","3.4904812874566753,84.52365234813992,-179.7588092598334","199.96953903127826,-181.26155740732997,87.67422935781546","backward_mask","","","","","","","","","",""
"","null","html-keyboard-response","213","709029","0.0-7.0-4.32","<div style=""font-size:60px;"">+</div>","null","","","","","","delay","","","","","","","","",""
"","3931","continuous_report","214","712961","0.0-7.0-5.32","","","","140,41,19","3.4904812874566753,84.52365234813992,-179.7588092598334","199.96953903127826,-181.26155740732997,87.67422935781546","Probe","","null","762","386","32,137,150","36","-5","25,135,161","41","1"
"","null","html-keyboard-response","215","713963","0.0-7.0-0.33","<div style=""font-size:60px;"">+</div>","null","","","","","fixation","","","","","","","","","",""
"","null","snap-keyboard-response","216","714065","0.0-7.0-1.33","","null","","45,76,110","58.47434094454735,81.34732861516012,-136.39967201249968","191.26095119260708,-182.70909152852016,146.27074032383413","encoding","","","","","","","","","",""
"","null","html-keyboard-response","217","714367","0.0-7.0-2.33","<div style=""font-size:60px;"">+</div>","null","","","","","","delay","","","","","","","","",""
"","null","mask-keyboard-response","218","714370","0.0-7.0-3.33","","null","","45,76,110","58.47434094454735,81.34732861516012,-136.39967201249968","191.26095119260708,-182.70909152852016,146.27074032383413","backward_mask","","","","","","","","","",""
"","null","html-keyboard-response","219","724071","0.0-7.0-4.33","<div style=""font-size:60px;"">+</div>","null","","","","","","delay","","","","","","","","",""
"","6438","continuous_report","220","730511","0.0-7.0-5.33","","","","45,76,110","58.47434094454735,81.34732861516012,-136.39967201249968","191.26095119260708,-182.70909152852016,146.27074032383413","Probe","","null","681","457","70,128,181","53","-57","244,66,118","110","2"
"","null","html-keyboard-response","221","731512","0.0-7.0-0.34","<div style=""font-size:60px;"">+</div>","null","","","","","fixation","","","","","","","","","",""
"","null","snap-keyboard-response","222","731615","0.0-7.0-1.34","","null","","176,93,33","-199.23893961834912,199.23893961834912,-123.13229506513164","-17.43114854953159,17.431148549531635,-157.6021507213444","encoding","","","","","","","","","",""
"","null","html-keyboard-response","223","731916","0.0-7.0-2.34","<div style=""font-size:60px;"">+</div>","null","","","","","","delay","","","","","","","","",""
"","null","mask-keyboard-response","224","731919","0.0-7.0-3.34","","null","","176,93,33","-199.23893961834912,199.23893961834912,-123.13229506513164","-17.43114854953159,17.431148549531635,-157.6021507213444","backward_mask","","","","","","","","","",""
"","null","html-keyboard-response","225","741620","0.0-7.0-4.34","<div style=""font-size:60px;"">+</div>","null","","","","","","delay","","","","","","","","",""
"","5449","continuous_report","226","747070","0.0-7.0-5.34","","","","176,93,33","-199.23893961834912,199.23893961834912,-123.13229506513164","-17.43114854953159,17.431148549531635,-157.6021507213444","Probe","","null","779","468","231,73,142","100","7","216,81,158","93","1"
"","null","html-keyboard-response","227","748072","0.0-7.0-0.35","<div style=""font-size:60px;"">+</div>","null","","","","","fixation","","","","","","","","","",""
"","null","snap-keyboard-response","228","748174","0.0-7.0-1.35","","null","","85,4,101","31.286893008046185,192.25233918766372,-136.39967201249968","197.53766811902756,-55.12747116339995,146.27074032383413","encoding","","","","","","","","","",""
"","null","html-keyboard-response","229","748476","0.0-7.0-2.35","<div style=""font-size:60px;"">+</div>","null","","","","","","delay","","","","","","","","",""
"","null","mask-keyboard-response","230","748479","0.0-7.0-3.35","","null","","85,4,101","31.286893008046185,192.25233918766372,-136.39967201249968","197.53766811902756,-55.12747116339995,146.27074032383413","backward_mask","","","","","","","","","",""
"","null","html-keyboard-response","231","758181","0.0-7.0-4.35","<div style=""font-size:60px;"">+</div>","null","","","","","","delay","","","","","","","","",""
"","2275","continuous_report","232","760458","0.0-7.0-5.35","","","","85,4,101","31.286893008046185,192.25233918766372,-136.39967201249968","197.53766811902756,-55.12747116339995,146.27074032383413","Probe","","null","882","425","91,138,100","16","12","121,135,72","4","1"
"","null","html-keyboard-response","233","761459","0.0-7.0-0.36","<div style=""font-size:60px;"">+</div>","null","","","","","fixation","","","","","","","","","",""
"","null","snap-keyboard-response","234","761561","0.0-7.0-1.36","","null","","28,67,174","-196.3254366895328,153.20888862379562,-78.14622569785476","-38.16179907530895,128.55752193730785,-184.10097069048805","encoding","","","","","","","","","",""
"","null","html-keyboard-response","235","761862","0.0-7.0-2.36","<div style=""font-size:60px;"">+</div>","null","","","","","","delay","","","","","","","","",""
"","null","mask-keyboard-response","236","761865","0.0-7.0-3.36","","null","","28,67,174","-196.3254366895328,153.20888862379562,-78.14622569785476","-38.16179907530895,128.55752193730785,-184.10097069048805","backward_mask","","","","","","","","","",""
"","null","html-keyboard-response","237","771567","0.0-7.0-4.36","<div style=""font-size:60px;"">+</div>","null","","","","","","delay","","","","","","","","",""
"","6506","continuous_report","238","778075","0.0-7.0-5.36","","","","28,67,174","-196.3254366895328,153.20888862379562,-78.14622569785476","-38.16179907530895,128.55752193730785,-184.10097069048805","Probe","","null","844","413","32,134,165","43","15","58,138,130","28","0"
"","null","html-keyboard-response","239","779076","0.0-7.0-0.37","<div style=""font-size:60px;"">+</div>","null","","","","","fixation","","","","","","","","","",""
"","null","snap-keyboard-response","240","779178","0.0-7.0-1.37","","null","","117,138,68","-179.75880925983344,-51.76380902050417,-61.80339887498951","-87.67422935781542,193.18516525781365,-190.2113032590307","encoding","","","","","","","","","",""
"","null","html-keyboard-response","241","779480","0.0-7.0-2.37","<div style=""font-size:60px;"">+</div>","null","","","","","","delay","","","","","","","","",""
"","null","mask-keyboard-response","242","779483","0.0-7.0-3.37","","null","","117,138,68","-179.75880925983344,-51.76380902050417,-61.80339887498951","-87.67422935781542,193.18516525781365,-190.2113032590307","backward_mask","","","","","","","","","",""
"","null","html-keyboard-response","243","789185","0.0-7.0-4.37","<div style=""font-size:60px;"">+</div>","null","","","","","","delay","","","","","","","","",""
"","13885","continuous_report","244","803071","0.0-7.0-5.37","","","","117,138,68","-179.75880925983344,-51.76380902050417,-61.80339887498951","-87.67422935781542,193.18516525781365,-190.2113032590307","Probe","","null","837","318","78,138,113","21","-96","246,67,101","117","0"
"","null","html-keyboard-response","245","804073","0.0-7.0-0.38","<div style=""font-size:60px;"">+</div>","null","","","","","fixation","","","","","","","","","",""
"","null","snap-keyboard-response","246","804175","0.0-7.0-1.38","","null","","11,132,115","-48.384379119933556,179.7588092598334,27.834620192013087","194.0591452551993,87.67422935781548,-198.05361374831406","encoding","","","","","","","","","",""
"","null","html-keyboard-response","247","804476","0.0-7.0-2.38","<div style=""font-size:60px;"">+</div>","null","","","","","","delay","","","","","","","","",""
"","null","mask-keyboard-response","248","804479","0.0-7.0-3.38","","null","","11,132,115","-48.384379119933556,179.7588092598334,27.834620192013087","194.0591452551993,87.67422935781548,-198.05361374831406","backward_mask","","","","","","","","","",""
"","null","html-keyboard-response","249","814180","0.0-7.0-4.38","<div style=""font-size:60px;"">+</div>","null","","","","","","delay","","","","","","","","",""
"","27690","continuous_report","250","841872","0.0-7.0-5.38","","","","11,132,115","-48.384379119933556,179.7588092598334,27.834620192013087","194.0591452551993,87.67422935781548,-198.05361374831406","Probe","","null","756","370","245,70,89","122","7","246,66,106","115","2"
"","null","html-keyboard-response","251","842873","0.0-7.0-0.39","<div style=""font-size:60px;"">+</div>","null","","","","","fixation","","","","","","","","","",""
"","null","snap-keyboard-response","252","842976","0.0-7.0-1.39","","null","","61,139,172","198.90437907365467,58.47434094454735,-191.2609511926071","20.905692653530693,-191.26095119260708,-58.47434094454728","encoding","","","","","","","","","",""
"","null","html-keyboard-response","253","843277","0.0-7.0-2.39","<div style=""font-size:60px;"">+</div>","null","","","","","","delay","","","","","","","","",""
"","null","mask-keyboard-response","254","843281","0.0-7.0-3.39","","null","","61,139,172","198.90437907365467,58.47434094454735,-191.2609511926071","20.905692653530693,-191.26095119260708,-58.47434094454728","backward_mask","","","","","","","","","",""
"","null","html-keyboard-response","255","852983","0.0-7.0-4.39","<div style=""font-size:60px;"">+</div>","null","","","","","","delay","","","","","","","","",""
"","4626","continuous_report","256","857611","0.0-7.0-5.39","","","","61,139,172","198.90437907365467,58.47434094454735,-191.2609511926071","20.905692653530693,-191.26095119260708,-58.47434094454728","Probe","","null","780","457","240,78,74","129","-10","226,92,56","139","1"
"","null","html-keyboard-response","257","858613","0.0-7.0-0.40","<div style=""font-size:60px;"">+</div>","null","","","","","fixation","","","","","","","","","",""
"","null","snap-keyboard-response","258","858715","0.0-7.0-1.40","","null","","174,18,152","-51.76380902050417,184.10097069048808,-58.47434094454741","193.18516525781365,78.14622569785475,-191.26095119260705","encoding","","","","","","","","","",""
"","null","html-keyboard-response","259","859016","0.0-7.0-2.40","<div style=""font-size:60px;"">+</div>","null","","","","","","delay","","","","","","","","",""
"","null","mask-keyboard-response","260","859020","0.0-7.0-3.40","","null","","174,18,152","-51.76380902050417,184.10097069048808,-58.47434094454741","193.18516525781365,78.14622569785475,-191.26095119260705","backward_mask","","","","","","","","","",""
"","null","html-keyboard-response","261","868722","0.0-7.0-4.40","<div style=""font-size:60px;"">+</div>","null","","","","","","delay","","","","","","","","",""
"","3556","continuous_report","262","872280","0.0-7.0-5.40","","","","174,18,152","-51.76380902050417,184.10097069048808,-58.47434094454741","193.18516525781365,78.14622569785475,-191.26095119260705","Probe","","null","700","466","161,125,44","168","-6","146,129,53","174","0"
"","null","html-keyboard-response","263","873281","0.0-7.0-0.41","<div style=""font-size:60px;"">+</div>","null","","","","","fixation","","","","","","","","","",""
"","null","snap-keyboard-response","264","873385","0.0-7.0-1.41","","null","","4,147,65","-169.6096192312852,74.92131868318239,84.52365234813989","105.98385284664099,-185.4367709133575,181.26155740732997","encoding","","","","","","","","","",""
"","null","html-keyboard-response","265","873687","0.0-7.0-2.41","<div style=""font-size:60px;"">+</div>","null","","","","","","delay","","","","","","","","",""
"","null","mask-keyboard-response","266","873690","0.0-7.0-3.41","","null","","4,147,65","-169.6096192312852,74.92131868318239,84.52365234813989","105.98385284664099,-185.4367709133575,181.26155740732997","backward_mask","","","","","","","","","",""
"","null","html-keyboard-response","267","883391","0.0-7.0-4.41","<div style=""font-size:60px;"">+</div>","null","","","","","","delay","","","","","","","","",""
"","8597","continuous_report","268","891990","0.0-7.0-5.41","","","","4,147,65","-169.6096192312852,74.92131868318239,84.52365234813989","105.98385284664099,-185.4367709133575,181.26155740732997","Probe","","null","560","346","186,116,36","158","154","121,135,72","4","0"
"","null","html-keyboard-response","269","892991","0.0-7.0-0.42","<div style=""font-size:60px;"">+</div>","null","","","","","fixation","","","","","","","","","",""
"","null","snap-keyboard-response","270","893093","0.0-7.0-1.42","","null","","133,178,51","143.86796006773017,-38.16179907530909,-117.5570504584946","-138.93167409179952,-196.32543668953278,161.80339887498948","encoding","","","","","","","","","",""
"","null","html-keyboard-response","271","893394","0.0-7.0-2.42","<div style=""font-size:60px;"">+</div>","null","","","","","","delay","","","","","","","","",""
"","null","mask-keyboard-response","272","893397","0.0-7.0-3.42","","null","","133,178,51","143.86796006773017,-38.16179907530909,-117.5570504584946","-138.93167409179952,-196.32543668953278,161.80339887498948","backward_mask","","","","","","","","","",""
"","null","html-keyboard-response","273","903099","0.0-7.0-4.42","<div style=""font-size:60px;"">+</div>","null","","","","","","delay","","","","","","","","",""
"","5482","continuous_report","274","908582","0.0-7.0-5.42","","","","133,178,51","143.86796006773017,-38.16179907530909,-117.5570504584946","-138.93167409179952,-196.32543668953278,161.80339887498948","Probe","","null","902","548","70,128,181","53","2","62,130,178","51","2"
"","null","html-keyboard-response","275","909584","0.0-7.0-0.43","<div style=""font-size:60px;"">+</div>","null","","","","","fixation","","","","","","","","","",""
"","null","snap-keyboard-response","276","909686","0.0-7.0-1.43","","null","","166,138,46","-117.55705045849464,148.62896509547886,-78.14622569785472","-161.80339887498945,133.82612127177165,184.10097069048808","encoding","","","","","","","","","",""
"","null","html-keyboard-response","277","909987","0.0-7.0-2.43","<div style=""font-size:60px;"">+</div>","null","","","","","","delay","","","","","","","","",""
"","null","mask-keyboard-response","278","909990","0.0-7.0-3.43","","null","","166,138,46","-117.55705045849464,148.62896509547886,-78.14622569785472","-161.80339887498945,133.82612127177165,184.10097069048808","backward_mask","","","","","","","","","",""
"","null","html-keyboard-response","279","919692","0.0-7.0-4.43","<div style=""font-size:60px;"">+</div>","null","","","","","","delay","","","","","","","","",""
"","21243","continuous_report","280","940937","0.0-7.0-5.43","","","","166,138,46","-117.55705045849464,148.62896509547886,-78.14622569785472","-161.80339887498945,133.82612127177165,184.10097069048808","Probe","","null","814","400","173,121,38","163","-3","166,123,41","166","0"
"","null","html-keyboard-response","281","941938","0.0-7.0-0.44","<div style=""font-size:60px;"">+</div>","null","","","","","fixation","","","","","","","","","",""
"","null","snap-keyboard-response","282","942039","0.0-7.0-1.44","","null","","151,126,173","198.5092303282644,-31.286893008046214,-199.23893961834912","-24.373868681029624,-197.53766811902753,17.431148549531727","encoding","","","","","","","","","",""
"","null","html-keyboard-response","283","942340","0.0-7.0-2.44","<div style=""font-size:60px;"">+</div>","null","","","","","","delay","","","","","","","","",""
"","null","mask-keyboard-response","284","942343","0.0-7.0-3.44","","null","","151,126,173","198.5092303282644,-31.286893008046214,-199.23893961834912","-24.373868681029624,-197.53766811902753,17.431148549531727","backward_mask","","","","","","","","","",""
"","null","html-keyboard-response","285","952045","0.0-7.0-4.44","<div style=""font-size:60px;"">+</div>","null","","","","","","delay","","","","","","","","",""
"","4548","continuous_report","286","956597","0.0-7.0-5.44","","","","151,126,173","198.5092303282644,-31.286893008046214,-199.23893961834912","-24.373868681029624,-197.53766811902753,17.431148549531727","Probe","","null","952","422","206,105,41","149","-2","202,108,39","151","0"
"","null","html-keyboard-response","287","957599","0.0-7.0-0.45","<div style=""font-size:60px;"">+</div>","null","","","","","fixation","","","","","","","","","",""
"","null","snap-keyboard-response","288","957701","0.0-7.0-1.45","","null","","144,14,42","196.3254366895328,146.2707403238341,-17.431148549531645","-38.161799075308934,136.3996720124997,199.23893961834912","encoding","","","","","","","","","",""
"","null","html-keyboard-response","289","958003","0.0-7.0-2.45","<div style=""font-size:60px;"">+</div>","null","","","","","","delay","","","","","","","","",""
"","null","mask-keyboard-response","290","958006","0.0-7.0-3.45","","null","","144,14,42","196.3254366895328,146.2707403238341,-17.431148549531645","-38.161799075308934,136.3996720124997,199.23893961834912","backward_mask","","","","","","","","","",""
"","null","html-keyboard-response","291","967708","0.0-7.0-4.45","<div style=""font-size:60px;"">+</div>","null","","","","","","delay","","","","","","","","",""
"","6515","continuous_report","292","974224","0.0-7.0-5.45","","","","144,14,42","196.3254366895328,146.2707403238341,-17.431148549531645","-38.161799075308934,136.3996720124997,199.23893961834912","Probe","","null","771","421","219,98,49","143","-1","217,99,48","144","0"
"","null","html-keyboard-response","293","975226","0.0-7.0-0.46","<div style=""font-size:60px;"">+</div>","null","","","","","fixation","","","","","","","","","",""
"","null","snap-keyboard-response","294","975328","0.0-7.0-1.46","","null","","109,86,126","178.20130483767358,-136.3996720124998,-111.83858069414934","90.79809994790935,-146.27074032383402,165.80751451100838","encoding","","","","","","","","","",""
"","null","html-keyboard-response","295","975630","0.0-7.0-2.46","<div style=""font-size:60px;"">+</div>","null","","","","","","delay","","","","","","","","",""
"","null","mask-keyboard-response","296","975633","0.0-7.0-3.46","","null","","109,86,126","178.20130483767358,-136.3996720124998,-111.83858069414934","90.79809994790935,-146.27074032383402,165.80751451100838","backward_mask","","","","","","","","","",""
"","null","html-keyboard-response","297","985334","0.0-7.0-4.46","<div style=""font-size:60px;"">+</div>","null","","","","","","delay","","","","","","","","",""
"","6235","continuous_report","298","991572","0.0-7.0-5.46","","","","109,86,126","178.20130483767358,-136.3996720124998,-111.83858069414934","90.79809994790935,-146.27074032383402,165.80751451100838","Probe","","null","802","430","159,126,45","169","43","243,75,80","126","2"
"","null","html-keyboard-response","299","992573","0.0-7.0-0.47","<div style=""font-size:60px;"">+</div>","null","","","","","fixation","","","","","","","","","",""
"","null","snap-keyboard-response","300","992674","0.0-7.0-1.47","","null","","145,101,33","-81.34732861516002,198.5092303282644,-136.39967201249968","-182.7090915285202,24.373868681029496,146.27074032383413","encoding","","","","","","","","","",""
"","null","html-keyboard-response","301","992976","0.0-7.0-2.47","<div style=""font-size:60px;"">+</div>","null","","","","","","delay","","","","","","","","",""
"","null","mask-keyboard-response","302","992979","0.0-7.0-3.47","","null","","145,101,33","-81.34732861516002,198.5092303282644,-136.39967201249968","-182.7090915285202,24.373868681029496,146.27074032383413","backward_mask","","","","","","","","","",""
"","null","html-keyboard-response","303","1002680","0.0-7.0-4.47","<div style=""font-size:60px;"">+</div>","null","","","","","","delay","","","","","","","","",""
"","4552","continuous_report","304","1007233","0.0-7.0-5.47","","","","145,101,33","-81.34732861516002,198.5092303282644,-136.39967201249968","-182.7090915285202,24.373868681029496,146.27074032383413","Probe","","null","859","445","23,135,159","40","7","42,137,143","33","2"
"","null","html-keyboard-response","305","1008235","0.0-7.0-0.48","<div style=""font-size:60px;"">+</div>","null","","","","","fixation","","","","","","","","","",""
"","null","snap-keyboard-response","306","1008338","0.0-7.0-1.48","","null","","157,31,113","159.72710200945858,-199.23893961834912,196.9615506024416","-120.36300463040965,17.431148549531727,34.729635533386066","encoding","","","","","","","","","",""
"","null","html-keyboard-response","307","1008640","0.0-7.0-2.48","<div style=""font-size:60px;"">+</div>","null","","","","","","delay","","","","","","","","",""
"","null","mask-keyboard-response","308","1008642","0.0-7.0-3.48","","null","","157,31,113","159.72710200945858,-199.23893961834912,196.9615506024416","-120.36300463040965,17.431148549531727,34.729635533386066","backward_mask","","","","","","","","","",""
"","null","html-keyboard-response","309","1018346","0.0-7.0-4.48","<div style=""font-size:60px;"">+</div>","null","","","","","","delay","","","","","","","","",""
"","4572","continuous_report","310","1022920","0.0-7.0-5.48","","","","157,31,113","159.72710200945858,-199.23893961834912,196.9615506024416","-120.36300463040965,17.431148549531727,34.729635533386066","Probe","","null","744","405","236,70,135","103","-10","245,65,110","113","2"
"","null","html-keyboard-response","311","1023922","0.0-7.0-0.49","<div style=""font-size:60px;"">+</div>","null","","","","","fixation","","","","","","","","","",""
"","null","snap-keyboard-response","312","1024024","0.0-7.0-1.49","","null","","172,33,146","-13.951294748825116,-176.58951857178536,31.286893008046185","-199.51281005196483,-93.89431255717817,197.53766811902756","encoding","","","","","","","","","",""
"","null","html-keyboard-response","313","1024325","0.0-7.0-2.49","<div style=""font-size:60px;"">+</div>","null","","","","","","delay","","","","","","","","",""
"","null","mask-keyboard-response","314","1024328","0.0-7.0-3.49","","null","","172,33,146","-13.951294748825116,-176.58951857178536,31.286893008046185","-199.51281005196483,-93.89431255717817,197.53766811902756","backward_mask","","","","","","","","","",""
"","null","html-keyboard-response","315","1034030","0.0-7.0-4.49","<div style=""font-size:60px;"">+</div>","null","","","","","","delay","","","","","","","","",""
"","6654","continuous_report","316","1040685","0.0-7.0-5.49","","","","172,33,146","-13.951294748825116,-176.58951857178536,31.286893008046185","-199.51281005196483,-93.89431255717817,197.53766811902756","Probe","","null","716","488","224,94,54","140","-6","213,102,45","146","2"
"","null","html-keyboard-response","317","1041687","0.0-7.0-0.50","<div style=""font-size:60px;"">+</div>","null","","","","","fixation","","","","","","","","","",""
"","null","snap-keyboard-response","318","1041789","0.0-7.0-1.50","","null","","124,66,102","58.47434094454735,-51.76380902050417,196.96155060244158","-191.26095119260708,193.18516525781365,-34.72963553338626","encoding","","","","","","","","","",""
"","null","html-keyboard-response","319","1042090","0.0-7.0-2.50","<div style=""font-size:60px;"">+</div>","null","","","","","","delay","","","","","","","","",""
"","null","mask-keyboard-response","320","1042094","0.0-7.0-3.50","","null","","124,66,102","58.47434094454735,-51.76380902050417,196.96155060244158","-191.26095119260708,193.18516525781365,-34.72963553338626","backward_mask","","","","","","","","","",""
"","null","html-keyboard-response","321","1051796","0.0-7.0-4.50","<div style=""font-size:60px;"">+</div>","null","","","","","","delay","","","","","","","","",""
"","12378","continuous_report","322","1064175","0.0-7.0-5.50","","","","124,66,102","58.47434094454735,-51.76380902050417,196.96155060244158","-191.26095119260708,193.18516525781365,-34.72963553338626","Probe","","null","787","421","242,76,78","127","3","244,72,85","124","0"
"","null","html-keyboard-response","323","1065177","0.0-7.0-0.51","<div style=""font-size:60px;"">+</div>","null","","","","","fixation","","","","","","","","","",""
"","null","snap-keyboard-response","324","1065279","0.0-7.0-1.51","","null","","60,106,126","-190.2113032590307,133.82612127177168,-3.4904812874566997","61.803398874989504,148.62896509547883,-199.96953903127826","encoding","","","","","","","","","",""
"","null","html-keyboard-response","325","1065579","0.0-7.0-2.51","<div style=""font-size:60px;"">+</div>","null","","","","","","delay","","","","","","","","",""
"","null","mask-keyboard-response","326","1065582","0.0-7.0-3.51","","null","","60,106,126","-190.2113032590307,133.82612127177168,-3.4904812874566997","61.803398874989504,148.62896509547883,-199.96953903127826","backward_mask","","","","","","","","","",""
"","null","html-keyboard-response","327","1075285","0.0-7.0-4.51","<div style=""font-size:60px;"">+</div>","null","","","","","","delay","","","","","","","","",""
"","3086","continuous_report","328","1078373","0.0-7.0-5.51","","","","60,106,126","-190.2113032590307,133.82612127177168,-3.4904812874566997","61.803398874989504,148.62896509547883,-199.96953903127826","Probe","","null","990","543","119,118,189","65","5","99,123,187","60","0"
"","null","html-keyboard-response","329","1079374","0.0-7.0-0.52","<div style=""font-size:60px;"">+</div>","null","","","","","fixation","","","","","","","","","",""
"","null","snap-keyboard-response","330","1079477","0.0-7.0-1.52","","null","","57,76,135","167.7341135890848,103.00761498201088,17.431148549531578","-108.9278070030054,171.43346014042243,-199.23893961834912","encoding","","","","","","","","","",""
"","null","html-keyboard-response","331","1079777","0.0-7.0-2.52","<div style=""font-size:60px;"">+</div>","null","","","","","","delay","","","","","","","","",""
"","null","mask-keyboard-response","332","1079781","0.0-7.0-3.52","","null","","57,76,135","167.7341135890848,103.00761498201088,17.431148549531578","-108.9278070030054,171.43346014042243,-199.23893961834912","backward_mask","","","","","","","","","",""
"","null","html-keyboard-response","333","1089482","0.0-7.0-4.52","<div style=""font-size:60px;"">+</div>","null","","","","","","delay","","","","","","","","",""
"","9588","continuous_report","334","1099072","0.0-7.0-5.52","","","","57,76,135","167.7341135890848,103.00761498201088,17.431148549531578","-108.9278070030054,171.43346014042243,-199.23893961834912","Probe","","null","694","620","238,81,70","131","-4","233,87,63","135","2"
"","null","html-keyboard-response","335","1100074","0.0-7.0-0.53","<div style=""font-size:60px;"">+</div>","null","","","","","fixation","","","","","","","","","",""
"","null","snap-keyboard-response","336","1100176","0.0-7.0-1.53","","null","","45,62,79","31.286893008046185,100,186.71608529944035","197.53766811902756,-173.20508075688772,71.67358990906006","encoding","","","","","","","","","",""
"","null","html-keyboard-response","337","1100477","0.0-7.0-2.53","<div style=""font-size:60px;"">+</div>","null","","","","","","delay","","","","","","","","",""
"","null","mask-keyboard-response","338","1100480","0.0-7.0-3.53","","null","","45,62,79","31.286893008046185,100,186.71608529944035","197.53766811902756,-173.20508075688772,71.67358990906006","backward_mask","","","","","","","","","",""
"","null","html-keyboard-response","339","1110181","0.0-7.0-4.53","<div style=""font-size:60px;"">+</div>","null","","","","","","delay","","","","","","","","",""
"","2998","continuous_report","340","1113179","0.0-7.0-5.53","","","","45,62,79","31.286893008046185,100,186.71608529944035","197.53766811902756,-173.20508075688772,71.67358990906006","Probe","","null","763","495","242,66,123","108","29","173,101,181","79","2"
"","null","html-keyboard-response","341","1114180","0.0-7.0-0.54","<div style=""font-size:60px;"">+</div>","null","","","","","fixation","","","","","","","","","",""
"","null","snap-keyboard-response","342","1114282","0.0-7.0-1.54","","null","","24,96,163","24.373868681029496,-179.7588092598334,114.71528727020922","198.5092303282644,87.67422935781546,-163.83040885779835","encoding","","","","","","","","","",""
"","null","html-keyboard-response","343","1114584","0.0-7.0-2.54","<div style=""font-size:60px;"">+</div>","null","","","","","","delay","","","","","","","","",""
"","null","mask-keyboard-response","344","1114587","0.0-7.0-3.54","","null","","24,96,163","24.373868681029496,-179.7588092598334,114.71528727020922","198.5092303282644,87.67422935781546,-163.83040885779835","backward_mask","","","","","","","","","",""
"","null","html-keyboard-response","345","1124288","0.0-7.0-4.54","<div style=""font-size:60px;"">+</div>","null","","","","","","delay","","","","","","","","",""
"","8881","continuous_report","346","1133170","0.0-7.0-5.54","","","","24,96,163","24.373868681029496,-179.7588092598334,114.71528727020922","198.5092303282644,87.67422935781546,-163.83040885779835","Probe","","null","749","471","204,107,40","150","126","70,138,120","24","0"
"","null","html-keyboard-response","347","1134172","0.0-7.0-0.55","<div style=""font-size:60px;"">+</div>","null","","","","","fixation","","","","","","","","","",""
"","null","snap-keyboard-response","348","1134273","0.0-7.0-1.55","","null","","37,126,58","176.5895185717854,141.4213562373095,-184.10097069048803","-93.89431255717817,141.42135623730948,78.14622569785483","encoding","","","","","","","","","",""
"","null","html-keyboard-response","349","1134575","0.0-7.0-2.55","<div style=""font-size:60px;"">+</div>","null","","","","","","delay","","","","","","","","",""
"","null","mask-keyboard-response","350","1134578","0.0-7.0-3.55","","null","","37,126,58","176.5895185717854,141.4213562373095,-184.10097069048803","-93.89431255717817,141.42135623730948,78.14622569785483","backward_mask","","","","","","","","","",""
"","null","html-keyboard-response","351","1144280","0.0-7.0-4.55","<div style=""font-size:60px;"">+</div>","null","","","","","","delay","","","","","","","","",""
"","6484","continuous_report","352","1150765","0.0-7.0-5.55","","","","37,126,58","176.5895185717854,141.4213562373095,-184.10097069048803","-93.89431255717817,141.42135623730948,78.14622569785483","Probe","","null","739","412","46,137,140","32","-5","29,136,152","37","0"
"","null","html-keyboard-response","353","1151767","0.0-7.0-0.56","<div style=""font-size:60px;"">+</div>","null","","","","","fixation","","","","","","","","","",""
"","null","snap-keyboard-response","354","1151869","0.0-7.0-1.56","","null","","8,150,116","163.83040885779832,-74.92131868318242,-27.834620192012988","-114.71528727020927,185.4367709133575,-198.05361374831406","encoding","","","","","","","","","",""
"","null","html-keyboard-response","355","1152169","0.0-7.0-2.56","<div style=""font-size:60px;"">+</div>","null","","","","","","delay","","","","","","","","",""
"","null","mask-keyboard-response","356","1152172","0.0-7.0-3.56","","null","","8,150,116","163.83040885779832,-74.92131868318242,-27.834620192012988","-114.71528727020927,185.4367709133575,-198.05361374831406","backward_mask","","","","","","","","","",""
"","null","html-keyboard-response","357","1161874","0.0-7.0-4.56","<div style=""font-size:60px;"">+</div>","null","","","","","","delay","","","","","","","","",""
"","13447","continuous_report","358","1175323","0.0-7.0-5.56","","","","8,150,116","163.83040885779832,-74.92131868318242,-27.834620192012988","-114.71528727020927,185.4367709133575,-198.05361374831406","Probe","","null","754","378","151,128,50","172","22","204,107,40","150","1"
"","null","html-keyboard-response","359","1176324","0.0-7.0-0.57","<div style=""font-size:60px;"">+</div>","null","","","","","fixation","","","","","","","","","",""
"","null","snap-keyboard-response","360","1176427","0.0-7.0-1.57","","null","","142,95,2","-114.71528727020916,193.18516525781365,61.80339887498945","163.8304088577984,-51.763809020504134,-190.21130325903073","encoding","","","","","","","","","",""
"","null","html-keyboard-response","361","1176727","0.0-7.0-2.57","<div style=""font-size:60px;"">+</div>","null","","","","","","delay","","","","","","","","",""
"","null","mask-keyboard-response","362","1176730","0.0-7.0-3.57","","null","","142,95,2","-114.71528727020916,193.18516525781365,61.80339887498945","163.8304088577984,-51.763809020504134,-190.21130325903073","backward_mask","","","","","","","","","",""
"","null","html-keyboard-response","363","1186432","0.0-7.0-4.57","<div style=""font-size:60px;"">+</div>","null","","","","","","delay","","","","","","","","",""
"","3795","continuous_report","364","1190228","0.0-7.0-5.57","","","","142,95,2","-114.71528727020916,193.18516525781365,61.80339887498945","163.8304088577984,-51.763809020504134,-190.21130325903073","Probe","","null","785","510","225,76,149","97","2","221,79,154","95","1"
"","null","html-keyboard-response","365","1191229","0.0-7.0-0.58","<div style=""font-size:60px;"">+</div>","null","","","","","fixation","","","","","","","","","",""
"","null","snap-keyboard-response","366","1191331","0.0-7.0-1.58","","null","","157,10,69","-103.00761498201089,108.92780700300544,123.1322950651317","-171.43346014042243,167.73411358908479,-157.60215072134434","encoding","","","","","","","","","",""
"","null","html-keyboard-response","367","1191632","0.0-7.0-2.58","<div style=""font-size:60px;"">+</div>","null","","","","","","delay","","","","","","","","",""
"","null","mask-keyboard-response","368","1191636","0.0-7.0-3.58","","null","","157,10,69","-103.00761498201089,108.92780700300544,123.1322950651317","-171.43346014042243,167.73411358908479,-157.60215072134434","backward_mask","","","","","","","","","",""
"","null","html-keyboard-response","369","1201338","0.0-7.0-4.58","<div style=""font-size:60px;"">+</div>","null","","","","","","delay","","","","","","","","",""
"","27026","continuous_report","370","1228366","0.0-7.0-5.58","","","","157,10,69","-103.00761498201089,108.92780700300544,123.1322950651317","-171.43346014042243,167.73411358908479,-157.60215072134434","Probe","","null","805","376","104,137,88","11","1","106,137,86","10","1"
"","null","html-keyboard-response","371","1229367","0.0-7.0-0.59","<div style=""font-size:60px;"">+</div>","null","","","","","fixation","","","","","","","","","",""
"","null","snap-keyboard-response","372","1229470","0.0-7.0-1.59","","null","","55,168,19","-68.40402866513386,84.52365234813992,-20.905692653530668","-187.93852415718163,-181.26155740732997,198.90437907365467","encoding","","","","","","","","","",""
"","null","html-keyboard-response","373","1229771","0.0-7.0-2.59","<div style=""font-size:60px;"">+</div>","null","","","","","","delay","","","","","","","","",""
"","null","mask-keyboard-response","374","1229775","0.0-7.0-3.59","","null","","55,168,19","-68.40402866513386,84.52365234813992,-20.905692653530668","-187.93852415718163,-181.26155740732997,198.90437907365467","backward_mask","","","","","","","","","",""
"","null","html-keyboard-response","375","1239476","0.0-7.0-4.59","<div style=""font-size:60px;"">+</div>","null","","","","","","delay","","","","","","","","",""
"","8046","continuous_report","376","1247523","0.0-7.0-5.59","","","","55,168,19","-68.40402866513386,84.52365234813992,-20.905692653530668","-187.93852415718163,-181.26155740732997,198.90437907365467","Probe","","null","753","349","83,138,108","19","0","83,138,108","19","2"
"[{""page_index"":0,""viewing_time"":13370}]","13371","instructions","377","1260894","0.0-8.0","","","","","","","","","","","","","","","","",""
