"view_history","rt","trial_type","trial_index","time_elapsed","internal_node_id","stimulus","key_press","prac_part","colIndex","allLocX","allLocY","test_part","mainExp_part","condType","xClicked","yClicked","responseCol","responseInd","responseError","correctCol","correctColIndex","probLocIndex"
"[{""page_index"":0,""viewing_time"":142336}]","142336","instructions","0","142336","0.0-0.0","","","","","","","","","","","","","","","","",""
"[{""page_index"":0,""viewing_time"":37529}]","37529","instructions","1","179865","0.0-1.0","","","","","","","","","","","","","","","","",""
"","null","html-keyboard-response","2","180867","0.0-2.0-0.0","<div style=""font-size:60px;"">+</div>","null","fixation","","","","","","","","","","","","","",""
"","null","snap-keyboard-response","3","182872","0.0-2.0-1.0","1","null","","113,43,130","-78.14622569785472,181.26155740732997,105.98385284664093","184.10097069048808,84.52365234813989,-169.60961923128522","encoding","","","","","","","","","",""
"","null","html-keyboard-response","4","182973","0.0-2.0-2.0","<div style=""font-size:60px;"">+</div>","null","","","","","","delay","","","","","","","","",""
"","null","mask-keyboard-response","5","183179","0.0-2.0-3.0","1","null","","113,43,130","-78.14622569785472,181.26155740732997,105.98385284664093","184.10097069048808,84.52365234813989,-169.60961923128522","backward_mask","","","","","","","","","",""
"","null","html-keyboard-response","6","184380","0.0-2.0-4.0","<div style=""font-size:60px;"">+</div>","null","","","","","","delay","","","","","","","","",""
"","6843","continuous_report","7","191228","0.0-2.0-5.0","1","","","113,43,130","-78.14622569785472,181.26155740732997,105.98385284664093","184.10097069048808,84.52365234813989,-169.60961923128522","Probe","","null","446","424","235,84,66","133","3","239,80,72","130","2"
"","null","html-keyboard-response","8","192229","0.0-2.0-0.1","<div style=""font-size:60px;"">+</div>","null","fixation","","","","","","","","","","","","","",""
"","null","snap-keyboard-response","9","194232","0.0-2.0-1.1","2","null","","74,170,151","100.00000000000003,198.5092303282644,105.98385284664093","173.20508075688772,24.373868681029496,-169.60961923128522","encoding","","","","","","","","","",""
"","null","html-keyboard-response","10","194334","0.0-2.0-2.1","<div style=""font-size:60px;"">+</div>","null","","","","","","delay","","","","","","","","",""
"","null","mask-keyboard-response","11","194537","0.0-2.0-3.1","2","null","","74,170,151","100.00000000000003,198.5092303282644,105.98385284664093","173.20508075688772,24.373868681029496,-169.60961923128522","backward_mask","","","","","","","","","",""
"","null","html-keyboard-response","12","195738","0.0-2.0-4.1","<div style=""font-size:60px;"">+</div>","null","","","","","","delay","","","","","","","","",""
"","11081","continuous_report","13","206820","0.0-2.0-5.1","2","","","74,170,151","100.00000000000003,198.5092303282644,105.98385284664093","173.20508075688772,24.373868681029496,-169.60961923128522","Probe","","null","1014","227","206,105,41","149","-21","156,127,47","170","1"
"[{""page_index"":0,""viewing_time"":4184}]","4185","instructions","14","211005","0.0-3.0","","","","","","","","","","","","","","","","",""
"","null","html-keyboard-response","15","212006","0.0-4.0-0.0","<div style=""font-size:60px;"">+</div>","null","fixation","","","","","","","","","","","","","",""
"","null","snap-keyboard-response","16","212108","0.0-4.0-1.0","1","null","","119,176,77","179.75880925983344,84.52365234813989,-10.467191248588861","-87.67422935781539,181.26155740732997,-199.72590695091478","encoding","","","","","","","","","",""
"","null","html-keyboard-response","17","212209","0.0-4.0-2.0","<div style=""font-size:60px;"">+</div>","null","","","","","","delay","","","","","","","","",""
"","null","mask-keyboard-response","18","212412","0.0-4.0-3.0","1","null","","119,176,77","179.75880925983344,84.52365234813989,-10.467191248588861","-87.67422935781539,181.26155740732997,-199.72590695091478","backward_mask","","","","","","","","","",""
"","null","html-keyboard-response","19","213914","0.0-4.0-4.0","<div style=""font-size:60px;"">+</div>","null","","","","","","delay","","","","","","","","",""
"","3693","continuous_report","20","217608","0.0-4.0-5.0","1","","","119,176,77","179.75880925983344,84.52365234813989,-10.467191248588861","-87.67422935781539,181.26155740732997,-199.72590695091478","Probe","","null","1059","396","246,69,94","120","43","166,104,184","77","2"
"","null","html-keyboard-response","21","218610","0.0-4.0-0.1","<div style=""font-size:60px;"">+</div>","null","fixation","","","","","","","","","","","","","",""
"","null","snap-keyboard-response","22","218712","0.0-4.0-1.1","2","null","","89,37,148","74.92131868318239,133.82612127177157,-198.05361374831406","185.4367709133575,-148.62896509547895,-27.834620192013105","encoding","","","","","","","","","",""
"","null","html-keyboard-response","23","218814","0.0-4.0-2.1","<div style=""font-size:60px;"">+</div>","null","","","","","","delay","","","","","","","","",""
"","null","mask-keyboard-response","24","219017","0.0-4.0-3.1","2","null","","89,37,148","74.92131868318239,133.82612127177157,-198.05361374831406","185.4367709133575,-148.62896509547895,-27.834620192013105","backward_mask","","","","","","","","","",""
"","null","html-keyboard-response","25","220518","0.0-4.0-4.1","<div style=""font-size:60px;"">+</div>","null","","","","","","delay","","","","","","","","",""
"","2286","continuous_report","26","222806","0.0-4.0-5.1","2","","","89,37,148","74.92131868318239,133.82612127177157,-198.05361374831406","185.4367709133575,-148.62896509547895,-27.834620192013105","Probe","","null","1063","295","106,137,86","10","-27","29,136,152","37","1"
"","null","html-keyboard-response","27","223807","0.0-4.0-0.2","<div style=""font-size:60px;"">+</div>","null","fixation","","","","","","","","","","","","","",""
"","null","snap-keyboard-response","28","223908","0.0-4.0-1.2","3","null","","71,55,177","184.100970690488,-143.86796006773025,10.467191248588794","-78.14622569785493,138.93167409179944,199.72590695091478","encoding","","","","","","","","","",""
"","null","html-keyboard-response","29","224010","0.0-4.0-2.2","<div style=""font-size:60px;"">+</div>","null","","","","","","delay","","","","","","","","",""
"","null","mask-keyboard-response","30","224213","0.0-4.0-3.2","3","null","","71,55,177","184.100970690488,-143.86796006773025,10.467191248588794","-78.14622569785493,138.93167409179944,199.72590695091478","backward_mask","","","","","","","","","",""
"","null","html-keyboard-response","31","225714","0.0-4.0-4.2","<div style=""font-size:60px;"">+</div>","null","","","","","","delay","","","","","","","","",""
"","2817","continuous_report","32","228532","0.0-4.0-5.2","3","","","71,55,177","184.100970690488,-143.86796006773025,10.467191248588794","-78.14622569785493,138.93167409179944,199.72590695091478","Probe","","null","625","570","162,105,185","76","5","143,111,188","71","0"
"","null","html-keyboard-response","33","229533","0.0-4.0-0.3","<div style=""font-size:60px;"">+</div>","null","fixation","","","","","","","","","","","","","",""
"","null","snap-keyboard-response","34","229636","0.0-4.0-1.3","4","null","","125,63,177","128.55752193730785,-74.92131868318242,-90.79809994790938","-153.20888862379562,185.4367709133575,-178.20130483767355","encoding","","","","","","","","","",""
"","null","html-keyboard-response","35","229737","0.0-4.0-2.3","<div style=""font-size:60px;"">+</div>","null","","","","","","delay","","","","","","","","",""
"","null","mask-keyboard-response","36","229940","0.0-4.0-3.3","4","null","","125,63,177","128.55752193730785,-74.92131868318242,-90.79809994790938","-153.20888862379562,185.4367709133575,-178.20130483767355","backward_mask","","","","","","","","","",""
"","null","html-keyboard-response","37","231442","0.0-4.0-4.3","<div style=""font-size:60px;"">+</div>","null","","","","","","delay","","","","","","","","",""
"","6471","continuous_report","38","237915","0.0-4.0-5.3","4","","","125,63,177","128.55752193730785,-74.92131868318242,-90.79809994790938","-153.20888862379562,185.4367709133575,-178.20130483767355","Probe","","null","424","533","246,69,91","121","-4","244,74,83","125","0"
"","null","html-keyboard-response","39","238916","0.0-4.0-0.4","<div style=""font-size:60px;"">+</div>","null","fixation","","","","","","","","","","","","","",""
"","null","snap-keyboard-response","40","239019","0.0-4.0-1.4","","null","","77,28,140","-141.42135623730954,199.96953903127826,81.34732861516002","-141.42135623730948,-3.49048128745689,182.70909152852016","encoding","","","","","","","","","",""
"","null","html-keyboard-response","41","239119","0.0-4.0-2.4","<div style=""font-size:60px;"">+</div>","null","","","","","","delay","","","","","","","","",""
"","null","mask-keyboard-response","42","239322","0.0-4.0-3.4","","null","","77,28,140","-141.42135623730954,199.96953903127826,81.34732861516002","-141.42135623730948,-3.49048128745689,182.70909152852016","backward_mask","","","","","","","","","",""
"","null","html-keyboard-response","43","240823","0.0-4.0-4.4","<div style=""font-size:60px;"">+</div>","null","","","","","","delay","","","","","","","","",""
"","7901","continuous_report","44","248725","0.0-4.0-5.4","","","","77,28,140","-141.42135623730954,199.96953903127826,81.34732861516002","-141.42135623730948,-3.49048128745689,182.70909152852016","Probe","","null","927","143","166,123,41","166","89","166,104,184","77","0"
"","null","html-keyboard-response","45","249726","0.0-4.0-0.5","<div style=""font-size:60px;"">+</div>","null","fixation","","","","","","","","","","","","","",""
"","null","snap-keyboard-response","46","249829","0.0-4.0-1.5","","null","","52,117,174","-141.42135623730954,44.990210868772984,-120.36300463040968","-141.42135623730948,194.87401295704706,159.72710200945858","encoding","","","","","","","","","",""
"","null","html-keyboard-response","47","249929","0.0-4.0-2.5","<div style=""font-size:60px;"">+</div>","null","","","","","","delay","","","","","","","","",""
"","null","mask-keyboard-response","48","250131","0.0-4.0-3.5","","null","","52,117,174","-141.42135623730954,44.990210868772984,-120.36300463040968","-141.42135623730948,194.87401295704706,159.72710200945858","backward_mask","","","","","","","","","",""
"","null","html-keyboard-response","49","251632","0.0-4.0-4.5","<div style=""font-size:60px;"">+</div>","null","","","","","","delay","","","","","","","","",""
"","3538","continuous_report","50","255171","0.0-4.0-5.5","","","","52,117,174","-141.42135623730954,44.990210868772984,-120.36300463040968","-141.42135623730948,194.87401295704706,159.72710200945858","Probe","","null","623","211","246,68,96","119","67","66,129,179","52","0"
"","null","html-keyboard-response","51","256173","0.0-4.0-0.6","<div style=""font-size:60px;"">+</div>","null","fixation","","","","","","","","","","","","","",""
"","null","snap-keyboard-response","52","256275","0.0-4.0-1.6","","null","","43,97,130","190.2113032590307,-68.40402866513374,74.92131868318239","-61.803398874989526,187.9385241571817,-185.4367709133575","encoding","","","","","","","","","",""
"","null","html-keyboard-response","53","256376","0.0-4.0-2.6","<div style=""font-size:60px;"">+</div>","null","","","","","","delay","","","","","","","","",""
"","null","mask-keyboard-response","54","256580","0.0-4.0-3.6","","null","","43,97,130","190.2113032590307,-68.40402866513374,74.92131868318239","-61.803398874989526,187.9385241571817,-185.4367709133575","backward_mask","","","","","","","","","",""
"","null","html-keyboard-response","55","258081","0.0-4.0-4.6","<div style=""font-size:60px;"">+</div>","null","","","","","","delay","","","","","","","","",""
"","4074","continuous_report","56","262157","0.0-4.0-5.6","","","","43,97,130","190.2113032590307,-68.40402866513374,74.92131868318239","-61.803398874989526,187.9385241571817,-185.4367709133575","Probe","","null","714","542","143,111,188","71","-59","239,80,72","130","2"
"","null","html-keyboard-response","57","263158","0.0-4.0-0.7","<div style=""font-size:60px;"">+</div>","null","fixation","","","","","","","","","","","","","",""
"","null","snap-keyboard-response","58","263260","0.0-4.0-1.7","","null","","169,98,141","-51.76380902050413,-27.83462019201307,-194.87401295704706","-193.18516525781365,198.05361374831406,44.99021086877295","encoding","","","","","","","","","",""
"","null","html-keyboard-response","59","263362","0.0-4.0-2.7","<div style=""font-size:60px;"">+</div>","null","","","","","","delay","","","","","","","","",""
"","null","mask-keyboard-response","60","263565","0.0-4.0-3.7","","null","","169,98,141","-51.76380902050413,-27.83462019201307,-194.87401295704706","-193.18516525781365,198.05361374831406,44.99021086877295","backward_mask","","","","","","","","","",""
"","null","html-keyboard-response","61","265067","0.0-4.0-4.7","<div style=""font-size:60px;"">+</div>","null","","","","","","delay","","","","","","","","",""
"","3344","continuous_report","62","268423","0.0-4.0-5.7","","","","169,98,141","-51.76380902050413,-27.83462019201307,-194.87401295704706","-193.18516525781365,198.05361374831406,44.99021086877295","Probe","","null","553","42","241,77,76","128","-41","159,126,45","169","0"
"","null","html-keyboard-response","63","269424","0.0-4.0-0.8","<div style=""font-size:60px;"">+</div>","null","fixation","","","","","","","","","","","","","",""
"","null","snap-keyboard-response","64","269526","0.0-4.0-1.8","","null","","164,103,48","84.52365234813989,-17.43114854953165,-136.39967201249968","181.26155740732997,-199.23893961834912,146.27074032383413","encoding","","","","","","","","","",""
"","null","html-keyboard-response","65","269627","0.0-4.0-2.8","<div style=""font-size:60px;"">+</div>","null","","","","","","delay","","","","","","","","",""
"","null","mask-keyboard-response","66","269830","0.0-4.0-3.8","","null","","164,103,48","84.52365234813989,-17.43114854953165,-136.39967201249968","181.26155740732997,-199.23893961834912,146.27074032383413","backward_mask","","","","","","","","","",""
"","null","html-keyboard-response","67","271331","0.0-4.0-4.8","<div style=""font-size:60px;"">+</div>","null","","","","","","delay","","","","","","","","",""
"","5932","continuous_report","68","277266","0.0-4.0-5.8","","","","164,103,48","84.52365234813989,-17.43114854953165,-136.39967201249968","181.26155740732997,-199.23893961834912,146.27074032383413","Probe","","null","802","452","241,77,76","128","25","236,70,135","103","1"
"","null","html-keyboard-response","69","278267","0.0-4.0-0.9","<div style=""font-size:60px;"">+</div>","null","fixation","","","","","","","","","","","","","",""
"","null","snap-keyboard-response","70","278383","0.0-4.0-1.9","","null","","96,130,171","191.26095119260714,136.3996720124997,-148.62896509547886","-58.47434094454725,146.2707403238341,-133.82612127177165","encoding","","","","","","","","","",""
"","null","html-keyboard-response","71","278484","0.0-4.0-2.9","<div style=""font-size:60px;"">+</div>","null","","","","","","delay","","","","","","","","",""
"","null","mask-keyboard-response","72","278688","0.0-4.0-3.9","","null","","96,130,171","191.26095119260714,136.3996720124997,-148.62896509547886","-58.47434094454725,146.2707403238341,-133.82612127177165","backward_mask","","","","","","","","","",""
"","null","html-keyboard-response","73","280189","0.0-4.0-4.9","<div style=""font-size:60px;"">+</div>","null","","","","","","delay","","","","","","","","",""
"","9832","continuous_report","74","290023","0.0-4.0-5.9","","","","96,130,171","191.26095119260714,136.3996720124997,-148.62896509547886","-58.47434094454725,146.2707403238341,-133.82612127177165","Probe","","null","558","221","75,138,115","22","-149","154,127,48","171","2"
"[{""page_index"":0,""viewing_time"":3419}]","3419","instructions","75","293442","0.0-5.0","","","","","","","","","","","","","","","","",""
"[{""page_index"":0,""viewing_time"":9584}]","9584","instructions","76","303027","0.0-6.0","","","","","","","","","","","","","","","","",""
"","null","html-keyboard-response","77","304028","0.0-7.0-0.0","<div style=""font-size:60px;"">+</div>","null","","","","","fixation","","","","","","","","","",""
"","null","snap-keyboard-response","78","304130","0.0-7.0-1.0","1","null","","144,17,54","27.834620192013137,-197.53766811902753,136.3996720124996","198.05361374831406,31.286893008046196,-146.2707403238342","encoding","","","","","","","","","",""
"","null","html-keyboard-response","79","304232","0.0-7.0-2.0","<div style=""font-size:60px;"">+</div>","null","","","","","","delay","","","","","","","","",""
"","null","mask-keyboard-response","80","304435","0.0-7.0-3.0","1","null","","144,17,54","27.834620192013137,-197.53766811902753,136.3996720124996","198.05361374831406,31.286893008046196,-146.2707403238342","backward_mask","","","","","","","","","",""
"","null","html-keyboard-response","81","305636","0.0-7.0-4.0","<div style=""font-size:60px;"">+</div>","null","","","","","","delay","","","","","","","","",""
"","4533","continuous_report","82","310171","0.0-7.0-5.0","1","","","144,17,54","27.834620192013137,-197.53766811902753,136.3996720124996","198.05361374831406,31.286893008046196,-146.2707403238342","Probe","","null","864","717","70,128,181","53","-91","217,99,48","144","0"
"","null","html-keyboard-response","83","311172","0.0-7.0-0.1","<div style=""font-size:60px;"">+</div>","null","","","","","fixation","","","","","","","","","",""
"","null","snap-keyboard-response","84","311274","0.0-7.0-1.1","2","null","","106,40,172","-44.990210868773055,-198.05361374831406,81.34732861516002","-194.87401295704703,-27.834620192013105,182.70909152852016","encoding","","","","","","","","","",""
"","null","html-keyboard-response","85","311375","0.0-7.0-2.1","<div style=""font-size:60px;"">+</div>","null","","","","","","delay","","","","","","","","",""
"","null","mask-keyboard-response","86","311578","0.0-7.0-3.1","2","null","","106,40,172","-44.990210868773055,-198.05361374831406,81.34732861516002","-194.87401295704703,-27.834620192013105,182.70909152852016","backward_mask","","","","","","","","","",""
"","null","html-keyboard-response","87","312779","0.0-7.0-4.1","<div style=""font-size:60px;"">+</div>","null","","","","","","delay","","","","","","","","",""
"","5626","continuous_report","88","318406","0.0-7.0-5.1","2","","","106,40,172","-44.990210868773055,-198.05361374831406,81.34732861516002","-194.87401295704703,-27.834620192013105,182.70909152852016","Probe","","null","931","538","36,137,147","35","-5","23,135,159","40","1"
"","null","html-keyboard-response","89","319406","0.0-7.0-0.2","<div style=""font-size:60px;"">+</div>","null","","","","","fixation","","","","","","","","","",""
"","null","snap-keyboard-response","90","319507","0.0-7.0-1.2","3","null","","77,19,125","-48.384379119933556,-189.10371511986335,190.2113032590307","194.0591452551993,65.1136308914314,-61.803398874989526","encoding","","","","","","","","","",""
"","null","html-keyboard-response","91","319609","0.0-7.0-2.2","<div style=""font-size:60px;"">+</div>","null","","","","","","delay","","","","","","","","",""
"","null","mask-keyboard-response","92","319812","0.0-7.0-3.2","3","null","","77,19,125","-48.384379119933556,-189.10371511986335,190.2113032590307","194.0591452551993,65.1136308914314,-61.803398874989526","backward_mask","","","","","","","","","",""
"","null","html-keyboard-response","93","321014","0.0-7.0-4.2","<div style=""font-size:60px;"">+</div>","null","","","","","","delay","","","","","","","","",""
"","8730","continuous_report","94","329746","0.0-7.0-5.2","3","","","77,19,125","-48.384379119933556,-189.10371511986335,190.2113032590307","194.0591452551993,65.1136308914314,-61.803398874989526","Probe","","null","888","570","106,137,86","10","-9","83,138,108","19","1"
"","null","html-keyboard-response","95","330747","0.0-7.0-0.3","<div style=""font-size:60px;"">+</div>","null","","","","","fixation","","","","","","","","","",""
"","null","snap-keyboard-response","96","330849","0.0-7.0-1.3","4","null","","109,57,134","196.3254366895328,-185.4367709133575,-146.2707403238341","38.16179907530896,-74.9213186831824,136.3996720124997","encoding","","","","","","","","","",""
"","null","html-keyboard-response","97","330951","0.0-7.0-2.3","<div style=""font-size:60px;"">+</div>","null","","","","","","delay","","","","","","","","",""
"","null","mask-keyboard-response","98","331154","0.0-7.0-3.3","4","null","","109,57,134","196.3254366895328,-185.4367709133575,-146.2707403238341","38.16179907530896,-74.9213186831824,136.3996720124997","backward_mask","","","","","","","","","",""
"","null","html-keyboard-response","99","332366","0.0-7.0-4.3","<div style=""font-size:60px;"">+</div>","null","","","","","","delay","","","","","","","","",""
"","2542","continuous_report","100","334909","0.0-7.0-5.3","4","","","109,57,134","196.3254366895328,-185.4367709133575,-146.2707403238341","38.16179907530896,-74.9213186831824,136.3996720124997","Probe","","null","638","161","47,132,172","47","-62","243,66,120","109","0"
"","null","html-keyboard-response","101","335911","0.0-7.0-0.4","<div style=""font-size:60px;"">+</div>","null","","","","","fixation","","","","","","","","","",""
"","null","snap-keyboard-response","102","336013","0.0-7.0-1.4","","null","","16,71,94","105.98385284664099,187.9385241571817,-173.20508075688772","169.6096192312852,-68.40402866513371,-100.00000000000003","encoding","","","","","","","","","",""
"","null","html-keyboard-response","103","336114","0.0-7.0-2.4","<div style=""font-size:60px;"">+</div>","null","","","","","","delay","","","","","","","","",""
"","null","mask-keyboard-response","104","336317","0.0-7.0-3.4","","null","","16,71,94","105.98385284664099,187.9385241571817,-173.20508075688772","169.6096192312852,-68.40402866513371,-100.00000000000003","backward_mask","","","","","","","","","",""
"","null","html-keyboard-response","105","337518","0.0-7.0-4.4","<div style=""font-size:60px;"">+</div>","null","","","","","","delay","","","","","","","","",""
"","9035","continuous_report","106","346554","0.0-7.0-5.4","","","","16,71,94","105.98385284664099,187.9385241571817,-173.20508075688772","169.6096192312852,-68.40402866513371,-100.00000000000003","Probe","","null","793","509","170,102,183","78","7","143,111,188","71","1"
"","null","html-keyboard-response","107","347555","0.0-7.0-0.5","<div style=""font-size:60px;"">+</div>","null","","","","","fixation","","","","","","","","","",""
"","null","snap-keyboard-response","108","347657","0.0-7.0-1.5","","null","","172,100,18","157.6021507213444,-48.38437911993356,190.2113032590307","123.13229506513164,-194.0591452551993,-61.803398874989526","encoding","","","","","","","","","",""
"","null","html-keyboard-response","109","347758","0.0-7.0-2.5","<div style=""font-size:60px;"">+</div>","null","","","","","","delay","","","","","","","","",""
"","null","mask-keyboard-response","110","347961","0.0-7.0-3.5","","null","","172,100,18","157.6021507213444,-48.38437911993356,190.2113032590307","123.13229506513164,-194.0591452551993,-61.803398874989526","backward_mask","","","","","","","","","",""
"","null","html-keyboard-response","111","349163","0.0-7.0-4.5","<div style=""font-size:60px;"">+</div>","null","","","","","","delay","","","","","","","","",""
"","7085","continuous_report","112","356250","0.0-7.0-5.5","","","","172,100,18","157.6021507213444,-48.38437911993356,190.2113032590307","123.13229506513164,-194.0591452551993,-61.803398874989526","Probe","","null","774","629","227,75,147","98","-2","231,73,142","100","1"
"","null","html-keyboard-response","113","357251","0.0-7.0-0.6","<div style=""font-size:60px;"">+</div>","null","","","","","fixation","","","","","","","","","",""
"","null","snap-keyboard-response","114","357353","0.0-7.0-1.6","","null","","41,134,158","-128.5575219373079,87.67422935781548,199.72590695091478","-153.2088886237956,-179.7588092598334,10.467191248588765","encoding","","","","","","","","","",""
"","null","html-keyboard-response","115","357454","0.0-7.0-2.6","<div style=""font-size:60px;"">+</div>","null","","","","","","delay","","","","","","","","",""
"","null","mask-keyboard-response","116","357657","0.0-7.0-3.6","","null","","41,134,158","-128.5575219373079,87.67422935781548,199.72590695091478","-153.2088886237956,-179.7588092598334,10.467191248588765","backward_mask","","","","","","","","","",""
"","null","html-keyboard-response","117","358858","0.0-7.0-4.6","<div style=""font-size:60px;"">+</div>","null","","","","","","delay","","","","","","","","",""
"","2531","continuous_report","118","361391","0.0-7.0-5.6","","","","41,134,158","-128.5575219373079,87.67422935781548,199.72590695091478","-153.2088886237956,-179.7588092598334,10.467191248588765","Probe","","null","756","176","204,107,40","150","16","234,85,64","134","1"
"","null","html-keyboard-response","119","362392","0.0-7.0-0.7","<div style=""font-size:60px;"">+</div>","null","","","","","fixation","","","","","","","","","",""
"","null","snap-keyboard-response","120","362495","0.0-7.0-1.7","","null","","172,74,133","84.52365234813989,-13.951294748825116,138.93167409179932","181.26155740732997,-199.51281005196483,-143.86796006773034","encoding","","","","","","","","","",""
"","null","html-keyboard-response","121","362596","0.0-7.0-2.7","<div style=""font-size:60px;"">+</div>","null","","","","","","delay","","","","","","","","",""
"","null","mask-keyboard-response","122","362799","0.0-7.0-3.7","","null","","172,74,133","84.52365234813989,-13.951294748825116,138.93167409179932","181.26155740732997,-199.51281005196483,-143.86796006773034","backward_mask","","","","","","","","","",""
"","null","html-keyboard-response","123","364000","0.0-7.0-4.7","<div style=""font-size:60px;"">+</div>","null","","","","","","delay","","","","","","","","",""
"","5996","continuous_report","124","369997","0.0-7.0-5.7","","","","172,74,133","84.52365234813989,-13.951294748825116,138.93167409179932","181.26155740732997,-199.51281005196483,-143.86796006773034","Probe","","null","870","635","176,120,38","162","-10","151,128,50","172","0"
"","null","html-keyboard-response","125","370999","0.0-7.0-0.8","<div style=""font-size:60px;"">+</div>","null","","","","","fixation","","","","","","","","","",""
"","null","snap-keyboard-response","126","371101","0.0-7.0-1.8","","null","","158,175,136","-185.43677091335746,81.34732861516002,51.76380902050424","74.92131868318245,182.70909152852016,-193.18516525781365","encoding","","","","","","","","","",""
"","null","html-keyboard-response","127","371202","0.0-7.0-2.8","<div style=""font-size:60px;"">+</div>","null","","","","","","delay","","","","","","","","",""
"","null","mask-keyboard-response","128","371405","0.0-7.0-3.8","","null","","158,175,136","-185.43677091335746,81.34732861516002,51.76380902050424","74.92131868318245,182.70909152852016,-193.18516525781365","backward_mask","","","","","","","","","",""
"","null","html-keyboard-response","129","372606","0.0-7.0-4.8","<div style=""font-size:60px;"">+</div>","null","","","","","","delay","","","","","","","","",""
"","3813","continuous_report","130","376421","0.0-7.0-5.8","","","","158,175,136","-185.43677091335746,81.34732861516002,51.76380902050424","74.92131868318245,182.70909152852016,-193.18516525781365","Probe","","null","606","620","233,87,63","135","-40","144,130,55","175","1"
"","null","html-keyboard-response","131","377422","0.0-7.0-0.9","<div style=""font-size:60px;"">+</div>","null","","","","","fixation","","","","","","","","","",""
"","null","snap-keyboard-response","132","377525","0.0-7.0-1.9","","null","","55,92,74","-167.7341135890848,13.951294748825092,143.86796006773017","-108.92780700300541,199.51281005196483,-138.93167409179952","encoding","","","","","","","","","",""
"","null","html-keyboard-response","133","377626","0.0-7.0-2.9","<div style=""font-size:60px;"">+</div>","null","","","","","","delay","","","","","","","","",""
"","null","mask-keyboard-response","134","377829","0.0-7.0-3.9","","null","","55,92,74","-167.7341135890848,13.951294748825092,143.86796006773017","-108.92780700300541,199.51281005196483,-138.93167409179952","backward_mask","","","","","","","","","",""
"","null","html-keyboard-response","135","379031","0.0-7.0-4.9","<div style=""font-size:60px;"">+</div>","null","","","","","","delay","","","","","","","","",""
"","7018","continuous_report","136","386050","0.0-7.0-5.9","","","","55,92,74","-167.7341135890848,13.951294748825092,143.86796006773017","-108.92780700300541,199.51281005196483,-138.93167409179952","Probe","","null","1002","446","32,134,165","43","-12","79,127,183","55","0"
"","null","html-keyboard-response","137","387052","0.0-7.0-0.10","<div style=""font-size:60px;"">+</div>","null","","","","","fixation","","","","","","","","","",""
"","null","snap-keyboard-response","138","387154","0.0-7.0-1.10","","null","","126,42,11","-125.86407820996746,-198.05361374831406,161.80339887498948","155.42919229139423,-27.834620192013105,117.55705045849463","encoding","","","","","","","","","",""
"","null","html-keyboard-response","139","387255","0.0-7.0-2.10","<div style=""font-size:60px;"">+</div>","null","","","","","","delay","","","","","","","","",""
"","null","mask-keyboard-response","140","387458","0.0-7.0-3.10","","null","","126,42,11","-125.86407820996746,-198.05361374831406,161.80339887498948","155.42919229139423,-27.834620192013105,117.55705045849463","backward_mask","","","","","","","","","",""
"","null","html-keyboard-response","141","388659","0.0-7.0-4.10","<div style=""font-size:60px;"">+</div>","null","","","","","","delay","","","","","","","","",""
"","11553","continuous_report","142","400214","0.0-7.0-5.10","","","","126,42,11","-125.86407820996746,-198.05361374831406,161.80339887498948","155.42919229139423,-27.834620192013105,117.55705045849463","Probe","","null","842","275","26,136,154","38","-4","28,134,163","42","1"
"","null","html-keyboard-response","143","401215","0.0-7.0-0.11","<div style=""font-size:60px;"">+</div>","null","","","","","fixation","","","","","","","","","",""
"","null","snap-keyboard-response","144","401318","0.0-7.0-1.11","","null","","28,103,146","-48.384379119933556,138.93167409179947,-182.70909152852016","194.0591452551993,143.86796006773022,81.34732861516008","encoding","","","","","","","","","",""
"","null","html-keyboard-response","145","401418","0.0-7.0-2.11","<div style=""font-size:60px;"">+</div>","null","","","","","","delay","","","","","","","","",""
"","null","mask-keyboard-response","146","401621","0.0-7.0-3.11","","null","","28,103,146","-48.384379119933556,138.93167409179947,-182.70909152852016","194.0591452551993,143.86796006773022,81.34732861516008","backward_mask","","","","","","","","","",""
"","null","html-keyboard-response","147","402822","0.0-7.0-4.11","<div style=""font-size:60px;"">+</div>","null","","","","","","delay","","","","","","","","",""
"","4296","continuous_report","148","407121","0.0-7.0-5.11","","","","28,103,146","-48.384379119933556,138.93167409179947,-182.70909152852016","194.0591452551993,143.86796006773022,81.34732861516008","Probe","","null","797","195","239,68,130","105","2","236,70,135","103","1"
"","null","html-keyboard-response","149","408122","0.0-7.0-0.12","<div style=""font-size:60px;"">+</div>","null","","","","","fixation","","","","","","","","","",""
"","null","snap-keyboard-response","150","408225","0.0-7.0-1.12","","null","","82,22,64","74.92131868318239,199.87816540381914,-195.62952014676114","185.4367709133575,-6.979899340500164,-41.58233816355181","encoding","","","","","","","","","",""
"","null","html-keyboard-response","151","408326","0.0-7.0-2.12","<div style=""font-size:60px;"">+</div>","null","","","","","","delay","","","","","","","","",""
"","null","mask-keyboard-response","152","408529","0.0-7.0-3.12","","null","","82,22,64","74.92131868318239,199.87816540381914,-195.62952014676114","185.4367709133575,-6.979899340500164,-41.58233816355181","backward_mask","","","","","","","","","",""
"","null","html-keyboard-response","153","409730","0.0-7.0-4.12","<div style=""font-size:60px;"">+</div>","null","","","","","","delay","","","","","","","","",""
"","4882","continuous_report","154","414613","0.0-7.0-5.12","","","","82,22,64","74.92131868318239,199.87816540381914,-195.62952014676114","185.4367709133575,-6.979899340500164,-41.58233816355181","Probe","","null","682","714","106,137,86","10","-12","75,138,115","22","1"
"","null","html-keyboard-response","155","415615","0.0-7.0-0.13","<div style=""font-size:60px;"">+</div>","null","","","","","fixation","","","","","","","","","",""
"","null","snap-keyboard-response","156","415731","0.0-7.0-1.13","","null","","150,49,174","199.23893961834912,-81.34732861516002,-187.9385241571817","-17.431148549531663,182.7090915285202,-68.40402866513374","encoding","","","","","","","","","",""
"","null","html-keyboard-response","157","415832","0.0-7.0-2.13","<div style=""font-size:60px;"">+</div>","null","","","","","","delay","","","","","","","","",""
"","null","mask-keyboard-response","158","416035","0.0-7.0-3.13","","null","","150,49,174","199.23893961834912,-81.34732861516002,-187.9385241571817","-17.431148549531663,182.7090915285202,-68.40402866513374","backward_mask","","","","","","","","","",""
"","null","html-keyboard-response","159","417237","0.0-7.0-4.13","<div style=""font-size:60px;"">+</div>","null","","","","","","delay","","","","","","","","",""
"","1785","continuous_report","160","419023","0.0-7.0-5.13","","","","150,49,174","199.23893961834912,-81.34732861516002,-187.9385241571817","-17.431148549531663,182.7090915285202,-68.40402866513374","Probe","","null","1108","375","200,109,38","152","2","204,107,40","150","0"
"","null","html-keyboard-response","161","420025","0.0-7.0-0.14","<div style=""font-size:60px;"">+</div>","null","","","","","fixation","","","","","","","","","",""
"","null","snap-keyboard-response","162","420141","0.0-7.0-1.14","","null","","164,62,98","199.87816540381914,-198.05361374831406,6.979899340500216","-6.979899340500164,27.834620192013148,199.87816540381914","encoding","","","","","","","","","",""
"","null","html-keyboard-response","163","420242","0.0-7.0-2.14","<div style=""font-size:60px;"">+</div>","null","","","","","","delay","","","","","","","","",""
"","null","mask-keyboard-response","164","420445","0.0-7.0-3.14","","null","","164,62,98","199.87816540381914,-198.05361374831406,6.979899340500216","-6.979899340500164,27.834620192013148,199.87816540381914","backward_mask","","","","","","","","","",""
"","null","html-keyboard-response","165","421647","0.0-7.0-4.14","<div style=""font-size:60px;"">+</div>","null","","","","","","delay","","","","","","","","",""
"","4980","continuous_report","166","426628","0.0-7.0-5.14","","","","164,62,98","199.87816540381914,-198.05361374831406,6.979899340500216","-6.979899340500164,27.834620192013148,199.87816540381914","Probe","","null","480","231","209,104,43","148","-16","171,122,39","164","0"
"","null","html-keyboard-response","167","427629","0.0-7.0-0.15","<div style=""font-size:60px;"">+</div>","null","","","","","fixation","","","","","","","","","",""
"","null","snap-keyboard-response","168","427747","0.0-7.0-1.15","","null","","19,61,159","-157.60215072134446,-143.86796006773025,153.20888862379562","-123.13229506513157,138.93167409179944,128.55752193730785","encoding","","","","","","","","","",""
"","null","html-keyboard-response","169","427849","0.0-7.0-2.15","<div style=""font-size:60px;"">+</div>","null","","","","","","delay","","","","","","","","",""
"","null","mask-keyboard-response","170","428052","0.0-7.0-3.15","","null","","19,61,159","-157.60215072134446,-143.86796006773025,153.20888862379562","-123.13229506513157,138.93167409179944,128.55752193730785","backward_mask","","","","","","","","","",""
"","null","html-keyboard-response","171","429253","0.0-7.0-4.15","<div style=""font-size:60px;"">+</div>","null","","","","","","delay","","","","","","","","",""
"","4280","continuous_report","172","433535","0.0-7.0-5.15","","","","19,61,159","-157.60215072134446,-143.86796006773025,153.20888862379562","-123.13229506513157,138.93167409179944,128.55752193730785","Probe","","null","585","225","35,134,167","44","25","83,138,108","19","0"
"","null","html-keyboard-response","173","434537","0.0-7.0-0.16","<div style=""font-size:60px;"">+</div>","null","","","","","fixation","","","","","","","","","",""
"","null","snap-keyboard-response","174","434639","0.0-7.0-1.16","","null","","66,48,151","-128.55752193730785,174.92394142787916,81.34732861516002","153.20888862379562,-96.96192404926737,182.70909152852016","encoding","","","","","","","","","",""
"","null","html-keyboard-response","175","434740","0.0-7.0-2.16","<div style=""font-size:60px;"">+</div>","null","","","","","","delay","","","","","","","","",""
"","null","mask-keyboard-response","176","434942","0.0-7.0-3.16","","null","","66,48,151","-128.55752193730785,174.92394142787916,81.34732861516002","153.20888862379562,-96.96192404926737,182.70909152852016","backward_mask","","","","","","","","","",""
"","null","html-keyboard-response","177","436143","0.0-7.0-4.16","<div style=""font-size:60px;"">+</div>","null","","","","","","delay","","","","","","","","",""
"","19058","continuous_report","178","455214","0.0-7.0-5.16","","","","66,48,151","-128.55752193730785,174.92394142787916,81.34732861516002","153.20888862379562,-96.96192404926737,182.70909152852016","Probe","","null","1008","169","39,133,168","45","-3","51,132,174","48","1"
"","null","html-keyboard-response","179","456214","0.0-7.0-0.17","<div style=""font-size:60px;"">+</div>","null","","","","","fixation","","","","","","","","","",""
"","null","snap-keyboard-response","180","456317","0.0-7.0-1.17","","null","","17,34,65","90.79809994790936,199.51281005196486,-196.9615506024416","178.20130483767355,-13.951294748824953,-34.729635533386094","encoding","","","","","","","","","",""
"","null","html-keyboard-response","181","456418","0.0-7.0-2.17","<div style=""font-size:60px;"">+</div>","null","","","","","","delay","","","","","","","","",""
"","null","mask-keyboard-response","182","456621","0.0-7.0-3.17","","null","","17,34,65","90.79809994790936,199.51281005196486,-196.9615506024416","178.20130483767355,-13.951294748824953,-34.729635533386094","backward_mask","","","","","","","","","",""
"","null","html-keyboard-response","183","457822","0.0-7.0-4.17","<div style=""font-size:60px;"">+</div>","null","","","","","","delay","","","","","","","","",""
"","3825","continuous_report","184","461648","0.0-7.0-5.17","","","","17,34,65","90.79809994790936,199.51281005196486,-196.9615506024416","178.20130483767355,-13.951294748824953,-34.729635533386094","Probe","","null","475","595","139,113,188","70","5","119,118,189","65","2"
"","null","html-keyboard-response","185","462650","0.0-7.0-0.18","<div style=""font-size:60px;"">+</div>","null","","","","","fixation","","","","","","","","","",""
"","null","snap-keyboard-response","186","462752","0.0-7.0-1.18","","null","","150,8,62","-78.14622569785472,-174.92394142787916,111.83858069414924","184.10097069048808,-96.9619240492674,-165.8075145110084","encoding","","","","","","","","","",""
"","null","html-keyboard-response","187","462854","0.0-7.0-2.18","<div style=""font-size:60px;"">+</div>","null","","","","","","delay","","","","","","","","",""
"","null","mask-keyboard-response","188","463055","0.0-7.0-3.18","","null","","150,8,62","-78.14622569785472,-174.92394142787916,111.83858069414924","184.10097069048808,-96.9619240492674,-165.8075145110084","backward_mask","","","","","","","","","",""
"","null","html-keyboard-response","189","464257","0.0-7.0-4.18","<div style=""font-size:60px;"">+</div>","null","","","","","","delay","","","","","","","","",""
"","4534","continuous_report","190","468792","0.0-7.0-5.18","","","","150,8,62","-78.14622569785472,-174.92394142787916,111.83858069414924","184.10097069048808,-96.9619240492674,-165.8075145110084","Probe","","null","637","512","46,137,140","32","-118","204,107,40","150","0"
"","null","html-keyboard-response","191","469793","0.0-7.0-0.19","<div style=""font-size:60px;"">+</div>","null","","","","","fixation","","","","","","","","","",""
"","null","snap-keyboard-response","192","469896","0.0-7.0-1.19","","null","","85,20,124","68.40402866513364,78.14622569785477,-186.71608529944035","-187.93852415718172,184.10097069048805,71.67358990906004","encoding","","","","","","","","","",""
"","null","html-keyboard-response","193","469997","0.0-7.0-2.19","<div style=""font-size:60px;"">+</div>","null","","","","","","delay","","","","","","","","",""
"","null","mask-keyboard-response","194","470200","0.0-7.0-3.19","","null","","85,20,124","68.40402866513364,78.14622569785477,-186.71608529944035","-187.93852415718172,184.10097069048805,71.67358990906004","backward_mask","","","","","","","","","",""
"","null","html-keyboard-response","195","471401","0.0-7.0-4.19","<div style=""font-size:60px;"">+</div>","null","","","","","","delay","","","","","","","","",""
"","9618","continuous_report","196","481020","0.0-7.0-5.19","","","","85,20,124","68.40402866513364,78.14622569785477,-186.71608529944035","-187.93852415718172,184.10097069048805,71.67358990906004","Probe","","null","583","560","227,75,147","98","13","193,93,173","85","0"
"","null","html-keyboard-response","197","482022","0.0-7.0-0.20","<div style=""font-size:60px;"">+</div>","null","","","","","fixation","","","","","","","","","",""
"","null","snap-keyboard-response","198","482126","0.0-7.0-1.20","","null","","2,74,155","117.55705045849459,159.72710200945858,-199.96953903127826","-161.8033988749895,120.36300463040965,3.490481287456687","encoding","","","","","","","","","",""
"","null","html-keyboard-response","199","482227","0.0-7.0-2.20","<div style=""font-size:60px;"">+</div>","null","","","","","","delay","","","","","","","","",""
"","null","mask-keyboard-response","200","482431","0.0-7.0-3.20","","null","","2,74,155","117.55705045849459,159.72710200945858,-199.96953903127826","-161.8033988749895,120.36300463040965,3.490481287456687","backward_mask","","","","","","","","","",""
"","null","html-keyboard-response","201","483632","0.0-7.0-4.20","<div style=""font-size:60px;"">+</div>","null","","","","","","delay","","","","","","","","",""
"","9108","continuous_report","202","492754","0.0-7.0-5.20","","","","2,74,155","117.55705045849459,159.72710200945858,-199.96953903127826","-161.8033988749895,120.36300463040965,3.490481287456687","Probe","","null","579","524","35,134,167","44","-30","155,108,186","74","1"
"","null","html-keyboard-response","203","493755","0.0-7.0-0.21","<div style=""font-size:60px;"">+</div>","null","","","","","fixation","","","","","","","","","",""
"","null","snap-keyboard-response","204","493857","0.0-7.0-1.21","","null","","9,100,162","74.92131868318239,-31.286893008046206,-197.53766811902753","-185.4367709133575,197.53766811902753,31.286893008046196","encoding","","","","","","","","","",""
"","null","html-keyboard-response","205","493959","0.0-7.0-2.21","<div style=""font-size:60px;"">+</div>","null","","","","","","delay","","","","","","","","",""
"","null","mask-keyboard-response","206","494162","0.0-7.0-3.21","","null","","9,100,162","74.92131868318239,-31.286893008046206,-197.53766811902753","-185.4367709133575,197.53766811902753,31.286893008046196","backward_mask","","","","","","","","","",""
"","null","html-keyboard-response","207","495362","0.0-7.0-4.21","<div style=""font-size:60px;"">+</div>","null","","","","","","delay","","","","","","","","",""
"","2396","continuous_report","208","497760","0.0-7.0-5.21","","","","9,100,162","74.92131868318239,-31.286893008046206,-197.53766811902753","-185.4367709133575,197.53766811902753,31.286893008046196","Probe","","null","814","641","240,67,128","106","6","231,73,142","100","1"
"","null","html-keyboard-response","209","498761","0.0-7.0-0.22","<div style=""font-size:60px;"">+</div>","null","","","","","fixation","","","","","","","","","",""
"","null","snap-keyboard-response","210","498863","0.0-7.0-1.22","","null","","133,38,69","-68.40402866513386,-10.467191248588724,131.2118057981014","-187.93852415718163,199.72590695091478,-150.94191604455446","encoding","","","","","","","","","",""
"","null","html-keyboard-response","211","498965","0.0-7.0-2.22","<div style=""font-size:60px;"">+</div>","null","","","","","","delay","","","","","","","","",""
"","null","mask-keyboard-response","212","499168","0.0-7.0-3.22","","null","","133,38,69","-68.40402866513386,-10.467191248588724,131.2118057981014","-187.93852415718163,199.72590695091478,-150.94191604455446","backward_mask","","","","","","","","","",""
"","null","html-keyboard-response","213","500369","0.0-7.0-4.22","<div style=""font-size:60px;"">+</div>","null","","","","","","delay","","","","","","","","",""
"","4049","continuous_report","214","504419","0.0-7.0-5.22","","","","133,38,69","-68.40402866513386,-10.467191248588724,131.2118057981014","-187.93852415718163,199.72590695091478,-150.94191604455446","Probe","","null","753","256","52,138,135","30","-8","26,136,154","38","1"
"","null","html-keyboard-response","215","505421","0.0-7.0-0.23","<div style=""font-size:60px;"">+</div>","null","","","","","fixation","","","","","","","","","",""
"","null","snap-keyboard-response","216","505523","0.0-7.0-1.23","","null","","3,61,45","-38.16179907530896,159.72710200945858,-189.10371511986335","196.3254366895328,-120.36300463040965,65.1136308914314","encoding","","","","","","","","","",""
"","null","html-keyboard-response","217","505625","0.0-7.0-2.23","<div style=""font-size:60px;"">+</div>","null","","","","","","delay","","","","","","","","",""
"","null","mask-keyboard-response","218","505828","0.0-7.0-3.23","","null","","3,61,45","-38.16179907530896,159.72710200945858,-189.10371511986335","196.3254366895328,-120.36300463040965,65.1136308914314","backward_mask","","","","","","","","","",""
"","null","html-keyboard-response","219","507028","0.0-7.0-4.23","<div style=""font-size:60px;"">+</div>","null","","","","","","delay","","","","","","","","",""
"","5861","continuous_report","220","512891","0.0-7.0-5.23","","","","3,61,45","-38.16179907530896,159.72710200945858,-189.10371511986335","196.3254366895328,-120.36300463040965,65.1136308914314","Probe","","null","670","363","151,109,187","73","12","103,122,188","61","1"
"","null","html-keyboard-response","221","513892","0.0-7.0-0.24","<div style=""font-size:60px;"">+</div>","null","","","","","fixation","","","","","","","","","",""
"","null","snap-keyboard-response","222","514008","0.0-7.0-1.24","","null","","18,123,163","-196.96155060244163,161.80339887498948,24.37386868102954","34.72963553338605,117.55705045849463,-198.5092303282644","encoding","","","","","","","","","",""
"","null","html-keyboard-response","223","514110","0.0-7.0-2.24","<div style=""font-size:60px;"">+</div>","null","","","","","","delay","","","","","","","","",""
"","null","mask-keyboard-response","224","514313","0.0-7.0-3.24","","null","","18,123,163","-196.96155060244163,161.80339887498948,24.37386868102954","34.72963553338605,117.55705045849463,-198.5092303282644","backward_mask","","","","","","","","","",""
"","null","html-keyboard-response","225","515514","0.0-7.0-4.24","<div style=""font-size:60px;"">+</div>","null","","","","","","delay","","","","","","","","",""
"","7431","continuous_report","226","522948","0.0-7.0-5.24","","","","18,123,163","-196.96155060244163,161.80339887498948,24.37386868102954","34.72963553338605,117.55705045849463,-198.5092303282644","Probe","","null","763","504","164,124,43","167","4","173,121,38","163","2"
"","null","html-keyboard-response","227","523949","0.0-7.0-0.25","<div style=""font-size:60px;"">+</div>","null","","","","","fixation","","","","","","","","","",""
"","null","snap-keyboard-response","228","524066","0.0-7.0-1.25","","null","","167,94,19","3.4904812874566753,-163.83040885779835,71.67358990905991","199.96953903127826,114.71528727020927,-186.7160852994404","encoding","","","","","","","","","",""
"","null","html-keyboard-response","229","524167","0.0-7.0-2.25","<div style=""font-size:60px;"">+</div>","null","","","","","","delay","","","","","","","","",""
"","null","mask-keyboard-response","230","524370","0.0-7.0-3.25","","null","","167,94,19","3.4904812874566753,-163.83040885779835,71.67358990905991","199.96953903127826,114.71528727020927,-186.7160852994404","backward_mask","","","","","","","","","",""
"","null","html-keyboard-response","231","525571","0.0-7.0-4.25","<div style=""font-size:60px;"">+</div>","null","","","","","","delay","","","","","","","","",""
"","2718","continuous_report","232","528291","0.0-7.0-5.25","","","","167,94,19","3.4904812874566753,-163.83040885779835,71.67358990905991","199.96953903127826,114.71528727020927,-186.7160852994404","Probe","","null","719","639","149,129,51","173","6","164,124,43","167","0"
"","null","html-keyboard-response","233","529292","0.0-7.0-0.26","<div style=""font-size:60px;"">+</div>","null","","","","","fixation","","","","","","","","","",""
"","null","snap-keyboard-response","234","529409","0.0-7.0-1.26","","null","","145,43,93","184.100970690488,48.384379119933485,-125.86407820996743","-78.14622569785493,-194.05914525519933,-155.42919229139423","encoding","","","","","","","","","",""
"","null","html-keyboard-response","235","529509","0.0-7.0-2.26","<div style=""font-size:60px;"">+</div>","null","","","","","","delay","","","","","","","","",""
"","null","mask-keyboard-response","236","529712","0.0-7.0-3.26","","null","","145,43,93","184.100970690488,48.384379119933485,-125.86407820996743","-78.14622569785493,-194.05914525519933,-155.42919229139423","backward_mask","","","","","","","","","",""
"","null","html-keyboard-response","237","530914","0.0-7.0-4.26","<div style=""font-size:60px;"">+</div>","null","","","","","","delay","","","","","","","","",""
"","6691","continuous_report","238","537606","0.0-7.0-5.26","","","","145,43,93","184.100970690488,48.384379119933485,-125.86407820996743","-78.14622569785493,-194.05914525519933,-155.42919229139423","Probe","","null","824","443","213,83,160","92","-1","216,81,158","93","2"
"","null","html-keyboard-response","239","538608","0.0-7.0-0.27","<div style=""font-size:60px;"">+</div>","null","","","","","fixation","","","","","","","","","",""
"","null","snap-keyboard-response","240","538724","0.0-7.0-1.27","","null","","27,54,114","-74.92131868318246,13.951294748825092,163.83040885779835","-185.43677091335746,199.51281005196483,114.71528727020922","encoding","","","","","","","","","",""
"","null","html-keyboard-response","241","538825","0.0-7.0-2.27","<div style=""font-size:60px;"">+</div>","null","","","","","","delay","","","","","","","","",""
"","null","mask-keyboard-response","242","539028","0.0-7.0-3.27","","null","","27,54,114","-74.92131868318246,13.951294748825092,163.83040885779835","-185.43677091335746,199.51281005196483,114.71528727020922","backward_mask","","","","","","","","","",""
"","null","html-keyboard-response","243","540229","0.0-7.0-4.27","<div style=""font-size:60px;"">+</div>","null","","","","","","delay","","","","","","","","",""
"","3732","continuous_report","244","543962","0.0-7.0-5.27","","","","27,54,114","-74.92131868318246,13.951294748825092,163.83040885779835","-185.43677091335746,199.51281005196483,114.71528727020922","Probe","","null","505","369","72,138,118","23","-4","61,138,128","27","0"
"","null","html-keyboard-response","245","544964","0.0-7.0-0.28","<div style=""font-size:60px;"">+</div>","null","","","","","fixation","","","","","","","","","",""
"","null","snap-keyboard-response","246","545066","0.0-7.0-1.28","","null","","139,39,159","38.161799075308984,-3.4904812874566997,-138.9316740917994","196.3254366895328,-199.96953903127826,143.86796006773028","encoding","","","","","","","","","",""
"","null","html-keyboard-response","247","545167","0.0-7.0-2.28","<div style=""font-size:60px;"">+</div>","null","","","","","","delay","","","","","","","","",""
"","null","mask-keyboard-response","248","545369","0.0-7.0-3.28","","null","","139,39,159","38.161799075308984,-3.4904812874566997,-138.9316740917994","196.3254366895328,-199.96953903127826,143.86796006773028","backward_mask","","","","","","","","","",""
"","null","html-keyboard-response","249","546571","0.0-7.0-4.28","<div style=""font-size:60px;"">+</div>","null","","","","","","delay","","","","","","","","",""
"","3431","continuous_report","250","550003","0.0-7.0-5.28","","","","139,39,159","38.161799075308984,-3.4904812874566997,-138.9316740917994","196.3254366895328,-199.96953903127826,143.86796006773028","Probe","","null","516","639","143,111,188","71","-88","183,117,36","159","2"
"","null","html-keyboard-response","251","551004","0.0-7.0-0.29","<div style=""font-size:60px;"">+</div>","null","","","","","fixation","","","","","","","","","",""
"","null","snap-keyboard-response","252","551107","0.0-7.0-1.29","","null","","81,21,55","-199.23893961834912,6.979899340500216,17.431148549531578","-17.43114854953159,199.87816540381914,-199.23893961834912","encoding","","","","","","","","","",""
"","null","html-keyboard-response","253","551208","0.0-7.0-2.29","<div style=""font-size:60px;"">+</div>","null","","","","","","delay","","","","","","","","",""
"","null","mask-keyboard-response","254","551411","0.0-7.0-3.29","","null","","81,21,55","-199.23893961834912,6.979899340500216,17.431148549531578","-17.43114854953159,199.87816540381914,-199.23893961834912","backward_mask","","","","","","","","","",""
"","null","html-keyboard-response","255","552612","0.0-7.0-4.29","<div style=""font-size:60px;"">+</div>","null","","","","","","delay","","","","","","","","",""
"","3004","continuous_report","256","555617","0.0-7.0-5.29","","","","81,21,55","-199.23893961834912,6.979899340500216,17.431148549531578","-17.43114854953159,199.87816540381914,-199.23893961834912","Probe","","null","1138","422","199,90,169","87","6","180,98,179","81","0"
"","null","html-keyboard-response","257","556618","0.0-7.0-0.30","<div style=""font-size:60px;"">+</div>","null","","","","","fixation","","","","","","","","","",""
"","null","snap-keyboard-response","258","556720","0.0-7.0-1.30","","null","","166,74,33","-55.127471163399775,-182.70909152852022,-20.905692653530668","-192.2523391876638,-81.34732861515997,198.90437907365467","encoding","","","","","","","","","",""
"","null","html-keyboard-response","259","556821","0.0-7.0-2.30","<div style=""font-size:60px;"">+</div>","null","","","","","","delay","","","","","","","","",""
"","null","mask-keyboard-response","260","557023","0.0-7.0-3.30","","null","","166,74,33","-55.127471163399775,-182.70909152852022,-20.905692653530668","-192.2523391876638,-81.34732861515997,198.90437907365467","backward_mask","","","","","","","","","",""
"","null","html-keyboard-response","261","558225","0.0-7.0-4.30","<div style=""font-size:60px;"">+</div>","null","","","","","","delay","","","","","","","","",""
"","4759","continuous_report","262","562997","0.0-7.0-5.30","","","","166,74,33","-55.127471163399775,-182.70909152852022,-20.905692653530668","-192.2523391876638,-81.34732861515997,198.90437907365467","Probe","","null","923","593","166,104,184","77","3","155,108,186","74","1"
"","null","html-keyboard-response","263","563998","0.0-7.0-0.31","<div style=""font-size:60px;"">+</div>","null","","","","","fixation","","","","","","","","","",""
"","null","snap-keyboard-response","264","564101","0.0-7.0-1.31","","null","","48,28,101","48.384379119933485,-34.72963553338606,163.83040885779835","-194.05914525519933,196.9615506024416,114.71528727020922","encoding","","","","","","","","","",""
"","null","html-keyboard-response","265","564201","0.0-7.0-2.31","<div style=""font-size:60px;"">+</div>","null","","","","","","delay","","","","","","","","",""
"","null","mask-keyboard-response","266","564404","0.0-7.0-3.31","","null","","48,28,101","48.384379119933485,-34.72963553338606,163.83040885779835","-194.05914525519933,196.9615506024416,114.71528727020922","backward_mask","","","","","","","","","",""
"","null","html-keyboard-response","267","565606","0.0-7.0-4.31","<div style=""font-size:60px;"">+</div>","null","","","","","","delay","","","","","","","","",""
"","2227","continuous_report","268","567834","0.0-7.0-5.31","","","","48,28,101","48.384379119933485,-34.72963553338606,163.83040885779835","-194.05914525519933,196.9615506024416,114.71528727020922","Probe","","null","894","591","51,132,174","48","0","51,132,174","48","0"
"","null","html-keyboard-response","269","568836","0.0-7.0-0.32","<div style=""font-size:60px;"">+</div>","null","","","","","fixation","","","","","","","","","",""
"","null","snap-keyboard-response","270","568937","0.0-7.0-1.32","","null","","126,72,150","-179.7588092598334,192.25233918766378,117.55705045849459","87.67422935781546,55.12747116339983,-161.8033988749895","encoding","","","","","","","","","",""
"","null","html-keyboard-response","271","569038","0.0-7.0-2.32","<div style=""font-size:60px;"">+</div>","null","","","","","","delay","","","","","","","","",""
"","null","mask-keyboard-response","272","569239","0.0-7.0-3.32","","null","","126,72,150","-179.7588092598334,192.25233918766378,117.55705045849459","87.67422935781546,55.12747116339983,-161.8033988749895","backward_mask","","","","","","","","","",""
"","null","html-keyboard-response","273","570441","0.0-7.0-4.32","<div style=""font-size:60px;"">+</div>","null","","","","","","delay","","","","","","","","",""
"","4052","continuous_report","274","574494","0.0-7.0-5.32","","","","126,72,150","-179.7588092598334,192.25233918766378,117.55705045849459","87.67422935781546,55.12747116339983,-161.8033988749895","Probe","","null","765","588","193,113,37","155","5","204,107,40","150","2"
"","null","html-keyboard-response","275","575496","0.0-7.0-0.33","<div style=""font-size:60px;"">+</div>","null","","","","","fixation","","","","","","","","","",""
"","null","snap-keyboard-response","276","575612","0.0-7.0-1.33","","null","","11,168,151","103.00761498201088,-195.62952014676114,199.96953903127826","171.43346014042243,-41.58233816355181,-3.49048128745689","encoding","","","","","","","","","",""
"","null","html-keyboard-response","277","575713","0.0-7.0-2.33","<div style=""font-size:60px;"">+</div>","null","","","","","","delay","","","","","","","","",""
"","null","mask-keyboard-response","278","575916","0.0-7.0-3.33","","null","","11,168,151","103.00761498201088,-195.62952014676114,199.96953903127826","171.43346014042243,-41.58233816355181,-3.49048128745689","backward_mask","","","","","","","","","",""
"","null","html-keyboard-response","279","577118","0.0-7.0-4.33","<div style=""font-size:60px;"">+</div>","null","","","","","","delay","","","","","","","","",""
"","4946","continuous_report","280","582065","0.0-7.0-5.33","","","","11,168,151","103.00761498201088,-195.62952014676114,199.96953903127826","171.43346014042243,-41.58233816355181,-3.49048128745689","Probe","","null","938","264","173,121,38","163","152","104,137,88","11","0"
"","null","html-keyboard-response","281","583067","0.0-7.0-0.34","<div style=""font-size:60px;"">+</div>","null","","","","","fixation","","","","","","","","","",""
"","null","snap-keyboard-response","282","583169","0.0-7.0-1.34","","null","","63,117,166","196.3254366895328,-192.25233918766372,17.431148549531624","38.16179907530896,55.12747116339993,199.23893961834912","encoding","","","","","","","","","",""
"","null","html-keyboard-response","283","583270","0.0-7.0-2.34","<div style=""font-size:60px;"">+</div>","null","","","","","","delay","","","","","","","","",""
"","null","mask-keyboard-response","284","583473","0.0-7.0-3.34","","null","","63,117,166","196.3254366895328,-192.25233918766372,17.431148549531624","38.16179907530896,55.12747116339993,199.23893961834912","backward_mask","","","","","","","","","",""
"","null","html-keyboard-response","285","584675","0.0-7.0-4.34","<div style=""font-size:60px;"">+</div>","null","","","","","","delay","","","","","","","","",""
"","2732","continuous_report","286","587409","0.0-7.0-5.34","","","","63,117,166","196.3254366895328,-192.25233918766372,17.431148549531624","38.16179907530896,55.12747116339993,199.23893961834912","Probe","","null","721","728","221,79,154","95","-22","246,67,101","117","1"
"","null","html-keyboard-response","287","588410","0.0-7.0-0.35","<div style=""font-size:60px;"">+</div>","null","","","","","fixation","","","","","","","","","",""
"","null","snap-keyboard-response","288","588528","0.0-7.0-1.35","","null","","37,57,89","114.71528727020923,-3.4904812874566997,-103.00761498201084","163.83040885779835,-199.96953903127826,171.43346014042245","encoding","","","","","","","","","",""
"","null","html-keyboard-response","289","588629","0.0-7.0-2.35","<div style=""font-size:60px;"">+</div>","null","","","","","","delay","","","","","","","","",""
"","null","mask-keyboard-response","290","588832","0.0-7.0-3.35","","null","","37,57,89","114.71528727020923,-3.4904812874566997,-103.00761498201084","163.83040885779835,-199.96953903127826,171.43346014042245","backward_mask","","","","","","","","","",""
"","null","html-keyboard-response","291","590034","0.0-7.0-4.35","<div style=""font-size:60px;"">+</div>","null","","","","","","delay","","","","","","","","",""
"","1873","continuous_report","292","591909","0.0-7.0-5.35","","","","37,57,89","114.71528727020923,-3.4904812874566997,-103.00761498201084","163.83040885779835,-199.96953903127826,171.43346014042245","Probe","","null","723","659","221,79,154","95","6","205,87,166","89","2"
"","null","html-keyboard-response","293","592910","0.0-7.0-0.36","<div style=""font-size:60px;"">+</div>","null","","","","","fixation","","","","","","","","","",""
"","null","snap-keyboard-response","294","593012","0.0-7.0-1.36","","null","","0,88,163","-141.42135623730948,176.5895185717854,-165.80751451100838","141.4213562373095,93.89431255717817,-111.83858069414934","encoding","","","","","","","","","",""
"","null","html-keyboard-response","295","593114","0.0-7.0-2.36","<div style=""font-size:60px;"">+</div>","null","","","","","","delay","","","","","","","","",""
"","null","mask-keyboard-response","296","593317","0.0-7.0-3.36","","null","","0,88,163","-141.42135623730948,176.5895185717854,-165.80751451100838","141.4213562373095,93.89431255717817,-111.83858069414934","backward_mask","","","","","","","","","",""
"","null","html-keyboard-response","297","594517","0.0-7.0-4.36","<div style=""font-size:60px;"">+</div>","null","","","","","","delay","","","","","","","","",""
"","8932","continuous_report","298","603451","0.0-7.0-5.36","","","","0,88,163","-141.42135623730948,176.5895185717854,-165.80751451100838","141.4213562373095,93.89431255717817,-111.83858069414934","Probe","","null","891","556","154,127,48","171","171","131,133,64","0","0"
"","null","html-keyboard-response","299","604452","0.0-7.0-0.37","<div style=""font-size:60px;"">+</div>","null","","","","","fixation","","","","","","","","","",""
"","null","snap-keyboard-response","300","604554","0.0-7.0-1.37","","null","","33,99,60","-199.72590695091478,191.26095119260714,105.98385284664099","10.467191248588762,-58.47434094454725,169.6096192312852","encoding","","","","","","","","","",""
"","null","html-keyboard-response","301","604655","0.0-7.0-2.37","<div style=""font-size:60px;"">+</div>","null","","","","","","delay","","","","","","","","",""
"","null","mask-keyboard-response","302","604858","0.0-7.0-3.37","","null","","33,99,60","-199.72590695091478,191.26095119260714,105.98385284664099","10.467191248588762,-58.47434094454725,169.6096192312852","backward_mask","","","","","","","","","",""
"","null","html-keyboard-response","303","606059","0.0-7.0-4.37","<div style=""font-size:60px;"">+</div>","null","","","","","","delay","","","","","","","","",""
"","4229","continuous_report","304","610290","0.0-7.0-5.37","","","","33,99,60","-199.72590695091478,191.26095119260714,105.98385284664099","10.467191248588762,-58.47434094454725,169.6096192312852","Probe","","null","646","483","242,66,123","108","9","229,74,144","99","1"
"","null","html-keyboard-response","305","611292","0.0-7.0-0.38","<div style=""font-size:60px;"">+</div>","null","","","","","fixation","","","","","","","","","",""
"","null","snap-keyboard-response","306","611394","0.0-7.0-1.38","","null","","90,57,20","196.96155060244158,-3.490481287456695,-185.4367709133575","-34.72963553338626,199.96953903127826,-74.9213186831824","encoding","","","","","","","","","",""
"","null","html-keyboard-response","307","611496","0.0-7.0-2.38","<div style=""font-size:60px;"">+</div>","null","","","","","","delay","","","","","","","","",""
"","null","mask-keyboard-response","308","611699","0.0-7.0-3.38","","null","","90,57,20","196.96155060244158,-3.490481287456695,-185.4367709133575","-34.72963553338626,199.96953903127826,-74.9213186831824","backward_mask","","","","","","","","","",""
"","null","html-keyboard-response","309","612900","0.0-7.0-4.38","<div style=""font-size:60px;"">+</div>","null","","","","","","delay","","","","","","","","",""
"","1822","continuous_report","310","614723","0.0-7.0-5.38","","","","90,57,20","196.96155060244158,-3.490481287456695,-185.4367709133575","-34.72963553338626,199.96953903127826,-74.9213186831824","Probe","","null","620","508","199,90,169","87","-3","208,86,164","90","0"
"","null","html-keyboard-response","311","615724","0.0-7.0-0.39","<div style=""font-size:60px;"">+</div>","null","","","","","fixation","","","","","","","","","",""
"","null","snap-keyboard-response","312","615827","0.0-7.0-1.39","","null","","120,21,57","-138.93167409179952,44.99021086877298,-169.6096192312852","-143.86796006773017,-194.87401295704706,105.98385284664099","encoding","","","","","","","","","",""
"","null","html-keyboard-response","313","615928","0.0-7.0-2.39","<div style=""font-size:60px;"">+</div>","null","","","","","","delay","","","","","","","","",""
"","null","mask-keyboard-response","314","616131","0.0-7.0-3.39","","null","","120,21,57","-138.93167409179952,44.99021086877298,-169.6096192312852","-143.86796006773017,-194.87401295704706,105.98385284664099","backward_mask","","","","","","","","","",""
"","null","html-keyboard-response","315","617332","0.0-7.0-4.39","<div style=""font-size:60px;"">+</div>","null","","","","","","delay","","","","","","","","",""
"","8988","continuous_report","316","626321","0.0-7.0-5.39","","","","120,21,57","-138.93167409179952,44.99021086877298,-169.6096192312852","-143.86796006773017,-194.87401295704706,105.98385284664099","Probe","","null","975","353","245,65,113","112","55","87,125,185","57","2"
"","null","html-keyboard-response","317","627323","0.0-7.0-0.40","<div style=""font-size:60px;"">+</div>","null","","","","","fixation","","","","","","","","","",""
"","null","snap-keyboard-response","318","627425","0.0-7.0-1.40","","null","","159,59,76","198.5092303282644,-195.62952014676114,-157.60215072134437","-24.373868681029624,-41.58233816355181,123.13229506513169","encoding","","","","","","","","","",""
"","null","html-keyboard-response","319","627526","0.0-7.0-2.40","<div style=""font-size:60px;"">+</div>","null","","","","","","delay","","","","","","","","",""
"","null","mask-keyboard-response","320","627729","0.0-7.0-3.40","","null","","159,59,76","198.5092303282644,-195.62952014676114,-157.60215072134437","-24.373868681029624,-41.58233816355181,123.13229506513169","backward_mask","","","","","","","","","",""
"","null","html-keyboard-response","321","628931","0.0-7.0-4.40","<div style=""font-size:60px;"">+</div>","null","","","","","","delay","","","","","","","","",""
"","11846","continuous_report","322","640789","0.0-7.0-5.40","","","","159,59,76","198.5092303282644,-195.62952014676114,-157.60215072134437","-24.373868681029624,-41.58233816355181,123.13229506513169","Probe","","null","820","336","147,110,187","72","-4","162,105,185","76","2"
"","null","html-keyboard-response","323","641790","0.0-7.0-0.41","<div style=""font-size:60px;"">+</div>","null","","","","","fixation","","","","","","","","","",""
"","null","snap-keyboard-response","324","641892","0.0-7.0-1.41","","null","","68,19,46","-55.12747116339981,-174.92394142787916,171.43346014042245","192.25233918766378,96.96192404926744,103.00761498201084","encoding","","","","","","","","","",""
"","null","html-keyboard-response","325","641993","0.0-7.0-2.41","<div style=""font-size:60px;"">+</div>","null","","","","","","delay","","","","","","","","",""
"","null","mask-keyboard-response","326","642196","0.0-7.0-3.41","","null","","68,19,46","-55.12747116339981,-174.92394142787916,171.43346014042245","192.25233918766378,96.96192404926744,103.00761498201084","backward_mask","","","","","","","","","",""
"","null","html-keyboard-response","327","643398","0.0-7.0-4.41","<div style=""font-size:60px;"">+</div>","null","","","","","","delay","","","","","","","","",""
"","7863","continuous_report","328","651262","0.0-7.0-5.41","","","","68,19,46","-55.12747116339981,-174.92394142787916,171.43346014042245","192.25233918766378,96.96192404926744,103.00761498201084","Probe","","null","780","496","170,102,183","78","10","131,115,189","68","0"
"","null","html-keyboard-response","329","652263","0.0-7.0-0.42","<div style=""font-size:60px;"">+</div>","null","","","","","fixation","","","","","","","","","",""
"","null","snap-keyboard-response","330","652366","0.0-7.0-1.42","","null","","35,111,140","-193.18516525781365,192.25233918766378,-87.6742293578155","51.763809020504205,55.12747116339983,179.75880925983338","encoding","","","","","","","","","",""
"","null","html-keyboard-response","331","652467","0.0-7.0-2.42","<div style=""font-size:60px;"">+</div>","null","","","","","","delay","","","","","","","","",""
"","null","mask-keyboard-response","332","652670","0.0-7.0-3.42","","null","","35,111,140","-193.18516525781365,192.25233918766378,-87.6742293578155","51.763809020504205,55.12747116339983,179.75880925983338","backward_mask","","","","","","","","","",""
"","null","html-keyboard-response","333","653871","0.0-7.0-4.42","<div style=""font-size:60px;"">+</div>","null","","","","","","delay","","","","","","","","",""
"","5546","continuous_report","334","659419","0.0-7.0-5.42","","","","35,111,140","-193.18516525781365,192.25233918766378,-87.6742293578155","51.763809020504205,55.12747116339983,179.75880925983338","Probe","","null","720","272","81,138,110","20","-15","36,137,147","35","0"
"","null","html-keyboard-response","335","660419","0.0-7.0-0.43","<div style=""font-size:60px;"">+</div>","null","","","","","fixation","","","","","","","","","",""
"","null","snap-keyboard-response","336","660520","0.0-7.0-1.43","","null","","109,158,69","-199.72590695091478,150.94191604455438,-20.905692653530668","10.467191248588762,-131.21180579810147,-198.90437907365467","encoding","","","","","","","","","",""
"","null","html-keyboard-response","337","660621","0.0-7.0-2.43","<div style=""font-size:60px;"">+</div>","null","","","","","","delay","","","","","","","","",""
"","null","mask-keyboard-response","338","660824","0.0-7.0-3.43","","null","","109,158,69","-199.72590695091478,150.94191604455438,-20.905692653530668","10.467191248588762,-131.21180579810147,-198.90437907365467","backward_mask","","","","","","","","","",""
"","null","html-keyboard-response","339","662025","0.0-7.0-4.43","<div style=""font-size:60px;"">+</div>","null","","","","","","delay","","","","","","","","",""
"","11296","continuous_report","340","673322","0.0-7.0-5.43","","","","109,158,69","-199.72590695091478,150.94191604455438,-20.905692653530668","10.467191248588762,-131.21180579810147,-198.90437907365467","Probe","","null","831","507","166,123,41","166","8","186,116,36","158","1"
"","null","html-keyboard-response","341","674324","0.0-7.0-0.44","<div style=""font-size:60px;"">+</div>","null","","","","","fixation","","","","","","","","","",""
"","null","snap-keyboard-response","342","674426","0.0-7.0-1.44","","null","","23,95,123","171.43346014042245,-27.834620192012988,-27.83462019201307","103.00761498201084,-198.05361374831406,198.05361374831406","encoding","","","","","","","","","",""
"","null","html-keyboard-response","343","674528","0.0-7.0-2.44","<div style=""font-size:60px;"">+</div>","null","","","","","","delay","","","","","","","","",""
"","null","mask-keyboard-response","344","674730","0.0-7.0-3.44","","null","","23,95,123","171.43346014042245,-27.834620192012988,-27.83462019201307","103.00761498201084,-198.05361374831406,198.05361374831406","backward_mask","","","","","","","","","",""
"","null","html-keyboard-response","345","675930","0.0-7.0-4.44","<div style=""font-size:60px;"">+</div>","null","","","","","","delay","","","","","","","","",""
"","6503","continuous_report","346","682435","0.0-7.0-5.44","","","","23,95,123","171.43346014042245,-27.834620192012988,-27.83462019201307","103.00761498201084,-198.05361374831406,198.05361374831406","Probe","","null","735","442","61,138,128","27","-68","221,79,154","95","1"
"","null","html-keyboard-response","347","683436","0.0-7.0-0.45","<div style=""font-size:60px;"">+</div>","null","","","","","fixation","","","","","","","","","",""
"","null","snap-keyboard-response","348","683538","0.0-7.0-1.45","","null","","1,128,53","-51.76380902050413,187.9385241571817,-55.12747116339981","-193.18516525781365,68.40402866513374,192.25233918766378","encoding","","","","","","","","","",""
"","null","html-keyboard-response","349","683639","0.0-7.0-2.45","<div style=""font-size:60px;"">+</div>","null","","","","","","delay","","","","","","","","",""
"","null","mask-keyboard-response","350","683842","0.0-7.0-3.45","","null","","1,128,53","-51.76380902050413,187.9385241571817,-55.12747116339981","-193.18516525781365,68.40402866513374,192.25233918766378","backward_mask","","","","","","","","","",""
"","null","html-keyboard-response","351","685044","0.0-7.0-4.45","<div style=""font-size:60px;"">+</div>","null","","","","","","delay","","","","","","","","",""
"","5321","continuous_report","352","690366","0.0-7.0-5.45","","","","1,128,53","-51.76380902050413,187.9385241571817,-55.12747116339981","-193.18516525781365,68.40402866513374,192.25233918766378","Probe","","null","907","248","176,120,38","162","34","241,77,76","128","1"
"","null","html-keyboard-response","353","691367","0.0-7.0-0.46","<div style=""font-size:60px;"">+</div>","null","","","","","fixation","","","","","","","","","",""
"","null","snap-keyboard-response","354","691469","0.0-7.0-1.46","","null","","27,143,119","-184.10097069048803,-182.70909152852022,199.51281005196483","78.14622569785483,-81.34732861515997,13.95129474882506","encoding","","","","","","","","","",""
"","null","html-keyboard-response","355","691571","0.0-7.0-2.46","<div style=""font-size:60px;"">+</div>","null","","","","","","delay","","","","","","","","",""
"","null","mask-keyboard-response","356","691774","0.0-7.0-3.46","","null","","27,143,119","-184.10097069048803,-182.70909152852022,199.51281005196483","78.14622569785483,-81.34732861515997,13.95129474882506","backward_mask","","","","","","","","","",""
"","null","html-keyboard-response","357","692974","0.0-7.0-4.46","<div style=""font-size:60px;"">+</div>","null","","","","","","delay","","","","","","","","",""
"","2487","continuous_report","358","695462","0.0-7.0-5.46","","","","27,143,119","-184.10097069048803,-182.70909152852022,199.51281005196483","78.14622569785483,-81.34732861515997,13.95129474882506","Probe","","null","1005","394","245,65,110","113","-6","246,68,96","119","2"
"","null","html-keyboard-response","359","696463","0.0-7.0-0.47","<div style=""font-size:60px;"">+</div>","null","","","","","fixation","","","","","","","","","",""
"","null","snap-keyboard-response","360","696566","0.0-7.0-1.47","","null","","68,12,86","-199.96953903127826,17.431148549531578,199.72590695091478","-3.4904812874566384,-199.23893961834912,10.467191248588765","encoding","","","","","","","","","",""
"","null","html-keyboard-response","361","696667","0.0-7.0-2.47","<div style=""font-size:60px;"">+</div>","null","","","","","","delay","","","","","","","","",""
"","null","mask-keyboard-response","362","696869","0.0-7.0-3.47","","null","","68,12,86","-199.96953903127826,17.431148549531578,199.72590695091478","-3.4904812874566384,-199.23893961834912,10.467191248588765","backward_mask","","","","","","","","","",""
"","null","html-keyboard-response","363","698071","0.0-7.0-4.47","<div style=""font-size:60px;"">+</div>","null","","","","","","delay","","","","","","","","",""
"","1428","continuous_report","364","699500","0.0-7.0-5.47","","","","68,12,86","-199.96953903127826,17.431148549531578,199.72590695091478","-3.4904812874566384,-199.23893961834912,10.467191248588765","Probe","","null","1042","404","213,83,160","92","6","196,91,171","86","2"
"","null","html-keyboard-response","365","700501","0.0-7.0-0.48","<div style=""font-size:60px;"">+</div>","null","","","","","fixation","","","","","","","","","",""
"","null","snap-keyboard-response","366","700617","0.0-7.0-1.48","","null","","152,6,45","-38.16179907530896,196.96155060244158,3.490481287456626","196.3254366895328,-34.72963553338626,-199.96953903127826","encoding","","","","","","","","","",""
"","null","html-keyboard-response","367","700718","0.0-7.0-2.48","<div style=""font-size:60px;"">+</div>","null","","","","","","delay","","","","","","","","",""
"","null","mask-keyboard-response","368","700921","0.0-7.0-3.48","","null","","152,6,45","-38.16179907530896,196.96155060244158,3.490481287456626","196.3254366895328,-34.72963553338626,-199.96953903127826","backward_mask","","","","","","","","","",""
"","null","html-keyboard-response","369","702123","0.0-7.0-4.48","<div style=""font-size:60px;"">+</div>","null","","","","","","delay","","","","","","","","",""
"","6782","continuous_report","370","708906","0.0-7.0-5.48","","","","152,6,45","-38.16179907530896,196.96155060244158,3.490481287456626","196.3254366895328,-34.72963553338626,-199.96953903127826","Probe","","null","905","366","183,97,177","82","-70","200,109,38","152","0"
"","null","html-keyboard-response","371","709908","0.0-7.0-0.49","<div style=""font-size:60px;"">+</div>","null","","","","","fixation","","","","","","","","","",""
"","null","snap-keyboard-response","372","710010","0.0-7.0-1.49","","null","","145,32,175","146.27074032383413,-3.6739403974420595e-14,100.00000000000003","-136.39967201249965,-200,173.20508075688772","encoding","","","","","","","","","",""
"","null","html-keyboard-response","373","710111","0.0-7.0-2.49","<div style=""font-size:60px;"">+</div>","null","","","","","","delay","","","","","","","","",""
"","null","mask-keyboard-response","374","710325","0.0-7.0-3.49","","null","","145,32,175","146.27074032383413,-3.6739403974420595e-14,100.00000000000003","-136.39967201249965,-200,173.20508075688772","backward_mask","","","","","","","","","",""
"","null","html-keyboard-response","375","711527","0.0-7.0-4.49","<div style=""font-size:60px;"">+</div>","null","","","","","","delay","","","","","","","","",""
"","2496","continuous_report","376","714024","0.0-7.0-5.49","","","","145,32,175","146.27074032383413,-3.6739403974420595e-14,100.00000000000003","-136.39967201249965,-200,173.20508075688772","Probe","","null","737","227","25,135,161","41","9","46,137,140","32","1"
"","null","html-keyboard-response","377","715025","0.0-7.0-0.50","<div style=""font-size:60px;"">+</div>","null","","","","","fixation","","","","","","","","","",""
"","null","snap-keyboard-response","378","715127","0.0-7.0-1.50","","null","","137,60,114","-48.384379119933556,-58.47434094454741,191.26095119260714","194.0591452551993,-191.26095119260705,-58.47434094454725","encoding","","","","","","","","","",""
"","null","html-keyboard-response","379","715228","0.0-7.0-2.50","<div style=""font-size:60px;"">+</div>","null","","","","","","delay","","","","","","","","",""
"","null","mask-keyboard-response","380","715431","0.0-7.0-3.50","","null","","137,60,114","-48.384379119933556,-58.47434094454741,191.26095119260714","194.0591452551993,-191.26095119260705,-58.47434094454725","backward_mask","","","","","","","","","",""
"","null","html-keyboard-response","381","716633","0.0-7.0-4.50","<div style=""font-size:60px;"">+</div>","null","","","","","","delay","","","","","","","","",""
"","3779","continuous_report","382","720414","0.0-7.0-5.50","","","","137,60,114","-48.384379119933556,-58.47434094454741,191.26095119260714","194.0591452551993,-191.26095119260705,-58.47434094454725","Probe","","null","1034","336","244,66,118","110","-27","230,89,59","137","0"
"","null","html-keyboard-response","383","721415","0.0-7.0-0.51","<div style=""font-size:60px;"">+</div>","null","","","","","fixation","","","","","","","","","",""
"","null","snap-keyboard-response","384","721517","0.0-7.0-1.51","","null","","170,8,66","198.05361374831406,44.99021086877298,41.58233816355189","27.834620192013087,-194.87401295704706,195.6295201467611","encoding","","","","","","","","","",""
"","null","html-keyboard-response","385","721619","0.0-7.0-2.51","<div style=""font-size:60px;"">+</div>","null","","","","","","delay","","","","","","","","",""
"","null","mask-keyboard-response","386","721822","0.0-7.0-3.51","","null","","170,8,66","198.05361374831406,44.99021086877298,41.58233816355189","27.834620192013087,-194.87401295704706,195.6295201467611","backward_mask","","","","","","","","","",""
"","null","html-keyboard-response","387","723022","0.0-7.0-4.51","<div style=""font-size:60px;"">+</div>","null","","","","","","delay","","","","","","","","",""
"","3689","continuous_report","388","726714","0.0-7.0-5.51","","","","170,8,66","198.05361374831406,44.99021086877298,41.58233816355189","27.834620192013087,-194.87401295704706,195.6295201467611","Probe","","null","1152","531","193,113,37","155","-15","156,127,47","170","0"
"","null","html-keyboard-response","389","727715","0.0-7.0-0.52","<div style=""font-size:60px;"">+</div>","null","","","","","fixation","","","","","","","","","",""
"","null","snap-keyboard-response","390","727831","0.0-7.0-1.52","","null","","85,140,67","-133.82612127177168,199.72590695091478,-117.5570504584946","-148.6289650954788,-10.467191248588874,161.80339887498948","encoding","","","","","","","","","",""
"","null","html-keyboard-response","391","727933","0.0-7.0-2.52","<div style=""font-size:60px;"">+</div>","null","","","","","","delay","","","","","","","","",""
"","null","mask-keyboard-response","392","728135","0.0-7.0-3.52","","null","","85,140,67","-133.82612127177168,199.72590695091478,-117.5570504584946","-148.6289650954788,-10.467191248588874,161.80339887498948","backward_mask","","","","","","","","","",""
"","null","html-keyboard-response","393","729337","0.0-7.0-4.52","<div style=""font-size:60px;"">+</div>","null","","","","","","delay","","","","","","","","",""
"","8175","continuous_report","394","737513","0.0-7.0-5.52","","","","85,140,67","-133.82612127177168,199.72590695091478,-117.5570504584946","-148.6289650954788,-10.467191248588874,161.80339887498948","Probe","","null","836","477","55,131,175","49","-36","193,93,173","85","0"
"","null","html-keyboard-response","395","738515","0.0-7.0-0.53","<div style=""font-size:60px;"">+</div>","null","","","","","fixation","","","","","","","","","",""
"","null","snap-keyboard-response","396","738617","0.0-7.0-1.53","","null","","125,25,40","-189.10371511986335,191.26095119260714,65.11363089143126","65.1136308914314,-58.47434094454725,-189.10371511986338","encoding","","","","","","","","","",""
"","null","html-keyboard-response","397","738718","0.0-7.0-2.53","<div style=""font-size:60px;"">+</div>","null","","","","","","delay","","","","","","","","",""
"","null","mask-keyboard-response","398","738921","0.0-7.0-3.53","","null","","125,25,40","-189.10371511986335,191.26095119260714,65.11363089143126","65.1136308914314,-58.47434094454725,-189.10371511986338","backward_mask","","","","","","","","","",""
"","null","html-keyboard-response","399","740123","0.0-7.0-4.53","<div style=""font-size:60px;"">+</div>","null","","","","","","delay","","","","","","","","",""
"","7662","continuous_report","400","747786","0.0-7.0-5.53","","","","125,25,40","-189.10371511986335,191.26095119260714,65.11363089143126","65.1136308914314,-58.47434094454725,-189.10371511986338","Probe","","null","782","334","32,137,150","36","11","67,138,123","25","1"
"","null","html-keyboard-response","401","748787","0.0-7.0-0.54","<div style=""font-size:60px;"">+</div>","null","","","","","fixation","","","","","","","","","",""
"","null","snap-keyboard-response","402","748889","0.0-7.0-1.54","","null","","176,106,34","-133.82612127177165,105.98385284664093,150.9419160445544","148.62896509547886,-169.60961923128522,131.21180579810144","encoding","","","","","","","","","",""
"","null","html-keyboard-response","403","748991","0.0-7.0-2.54","<div style=""font-size:60px;"">+</div>","null","","","","","","delay","","","","","","","","",""
"","null","mask-keyboard-response","404","749194","0.0-7.0-3.54","","null","","176,106,34","-133.82612127177165,105.98385284664093,150.9419160445544","148.62896509547886,-169.60961923128522,131.21180579810144","backward_mask","","","","","","","","","",""
"","null","html-keyboard-response","405","750395","0.0-7.0-4.54","<div style=""font-size:60px;"">+</div>","null","","","","","","delay","","","","","","","","",""
"","2124","continuous_report","406","752520","0.0-7.0-5.54","","","","176,106,34","-133.82612127177165,105.98385284664093,150.9419160445544","148.62896509547886,-169.60961923128522,131.21180579810144","Probe","","null","921","670","66,129,179","52","18","39,137,145","34","2"
"","null","html-keyboard-response","407","753522","0.0-7.0-0.55","<div style=""font-size:60px;"">+</div>","null","","","","","fixation","","","","","","","","","",""
"","null","snap-keyboard-response","408","753624","0.0-7.0-1.55","","null","","83,24,46","176.5895185717854,-125.86407820996746,-194.0591452551993","93.89431255717817,155.42919229139423,-48.3843791199335","encoding","","","","","","","","","",""
"","null","html-keyboard-response","409","753725","0.0-7.0-2.55","<div style=""font-size:60px;"">+</div>","null","","","","","","delay","","","","","","","","",""
"","null","mask-keyboard-response","410","753928","0.0-7.0-3.55","","null","","83,24,46","176.5895185717854,-125.86407820996746,-194.0591452551993","93.89431255717817,155.42919229139423,-48.3843791199335","backward_mask","","","","","","","","","",""
"","null","html-keyboard-response","411","755130","0.0-7.0-4.55","<div style=""font-size:60px;"">+</div>","null","","","","","","delay","","","","","","","","",""
"","6974","continuous_report","412","762105","0.0-7.0-5.55","","","","83,24,46","176.5895185717854,-125.86407820996746,-194.0591452551993","93.89431255717817,155.42919229139423,-48.3843791199335","Probe","","null","820","468","62,130,178","51","5","43,133,170","46","2"
"","null","html-keyboard-response","413","763107","0.0-7.0-0.56","<div style=""font-size:60px;"">+</div>","null","","","","","fixation","","","","","","","","","",""
"","null","snap-keyboard-response","414","763209","0.0-7.0-1.56","","null","","100,0,72","199.96953903127826,-48.38437911993356,93.89431255717817","3.4904812874567024,-194.0591452551993,176.58951857178536","encoding","","","","","","","","","",""
"","null","html-keyboard-response","415","763309","0.0-7.0-2.56","<div style=""font-size:60px;"">+</div>","null","","","","","","delay","","","","","","","","",""
"","null","mask-keyboard-response","416","763512","0.0-7.0-3.56","","null","","100,0,72","199.96953903127826,-48.38437911993356,93.89431255717817","3.4904812874567024,-194.0591452551993,176.58951857178536","backward_mask","","","","","","","","","",""
"","null","html-keyboard-response","417","764714","0.0-7.0-4.56","<div style=""font-size:60px;"">+</div>","null","","","","","","delay","","","","","","","","",""
"","2801","continuous_report","418","767516","0.0-7.0-5.56","","","","100,0,72","199.96953903127826,-48.38437911993356,93.89431255717817","3.4904812874567024,-194.0591452551993,176.58951857178536","Probe","","null","731","291","244,65,115","111","11","231,73,142","100","0"
"","null","html-keyboard-response","419","768518","0.0-7.0-0.57","<div style=""font-size:60px;"">+</div>","null","","","","","fixation","","","","","","","","","",""
"","null","snap-keyboard-response","420","768620","0.0-7.0-1.57","","null","","31,56,174","128.55752193730788,-148.6289650954788,-199.51281005196486","153.20888862379562,133.82612127177168,-13.951294748824965","encoding","","","","","","","","","",""
"","null","html-keyboard-response","421","768721","0.0-7.0-2.57","<div style=""font-size:60px;"">+</div>","null","","","","","","delay","","","","","","","","",""
"","null","mask-keyboard-response","422","768924","0.0-7.0-3.57","","null","","31,56,174","128.55752193730788,-148.6289650954788,-199.51281005196486","153.20888862379562,133.82612127177168,-13.951294748824965","backward_mask","","","","","","","","","",""
"","null","html-keyboard-response","423","770126","0.0-7.0-4.57","<div style=""font-size:60px;"">+</div>","null","","","","","","delay","","","","","","","","",""
"","2913","continuous_report","424","773040","0.0-7.0-5.57","","","","31,56,174","128.55752193730788,-148.6289650954788,-199.51281005196486","153.20888862379562,133.82612127177168,-13.951294748824965","Probe","","null","687","287","149,129,51","173","-1","146,129,53","174","2"
"","null","html-keyboard-response","425","774041","0.0-7.0-0.58","<div style=""font-size:60px;"">+</div>","null","","","","","fixation","","","","","","","","","",""
"","null","snap-keyboard-response","426","774161","0.0-7.0-1.58","","null","","112,18,178","24.37386868102954,195.6295201467611,-38.16179907530896","-198.5092303282644,-41.582338163551974,196.3254366895328","encoding","","","","","","","","","",""
"","null","html-keyboard-response","427","774262","0.0-7.0-2.58","<div style=""font-size:60px;"">+</div>","null","","","","","","delay","","","","","","","","",""
"","null","mask-keyboard-response","428","774465","0.0-7.0-3.58","","null","","112,18,178","24.37386868102954,195.6295201467611,-38.16179907530896","-198.5092303282644,-41.582338163551974,196.3254366895328","backward_mask","","","","","","","","","",""
"","null","html-keyboard-response","429","775666","0.0-7.0-4.58","<div style=""font-size:60px;"">+</div>","null","","","","","","delay","","","","","","","","",""
"","22301","continuous_report","430","797980","0.0-7.0-5.58","","","","112,18,178","24.37386868102954,195.6295201467611,-38.16179907530896","-198.5092303282644,-41.582338163551974,196.3254366895328","Probe","","null","772","443","173,121,38","163","-15","136,132,60","178","2"
"","null","html-keyboard-response","431","798982","0.0-7.0-0.59","<div style=""font-size:60px;"">+</div>","null","","","","","fixation","","","","","","","","","",""
"","null","snap-keyboard-response","432","799083","0.0-7.0-1.59","","null","","11,66,157","-93.89431255717815,148.62896509547886,-136.39967201249968","-176.5895185717854,-133.82612127177163,146.27074032383413","encoding","","","","","","","","","",""
"","null","html-keyboard-response","433","799184","0.0-7.0-2.59","<div style=""font-size:60px;"">+</div>","null","","","","","","delay","","","","","","","","",""
"","null","mask-keyboard-response","434","799387","0.0-7.0-3.59","","null","","11,66,157","-93.89431255717815,148.62896509547886,-136.39967201249968","-176.5895185717854,-133.82612127177163,146.27074032383413","backward_mask","","","","","","","","","",""
"","null","html-keyboard-response","435","800589","0.0-7.0-4.59","<div style=""font-size:60px;"">+</div>","null","","","","","","delay","","","","","","","","",""
"","6626","continuous_report","436","807216","0.0-7.0-5.59","","","","11,66,157","-93.89431255717815,148.62896509547886,-136.39967201249968","-176.5895185717854,-133.82612127177163,146.27074032383413","Probe","","null","814","592","91,138,100","16","5","104,137,88","11","0"
"[{""page_index"":0,""viewing_time"":47357}]","47357","instructions","437","854574","0.0-8.0","","","","","","","","","","","","","","","","",""
